Year,Month,Day,Time,Flight_Time_(s),Sync,Gyro_X,Gyro_Y,Gyro_Z,Accel_X,Accel_Y,Accel_Z,Quat_1,Quat_2,Quat_3,Quat_4,Aux_Volts,Current
2024,6,20,11:51:50.360,-2.040,43,-0.8,0.1,0.3,-0.98,-0.08,-0.09,0.99997,0.00040,0.00013,-0.00013,0.003,0.0000
2024,6,20,11:51:50.360,-2.038,45,-0.6,0.1,0.1,-0.99,-0.08,-0.09,0.99997,0.00040,0.00013,-0.00013,0.003,0.0000
2024,6,20,11:51:50.360,-2.036,47,-0.6,0.3,0.3,-0.98,-0.08,-0.08,0.99997,0.00040,0.00013,-0.00013,0.003,0.0000
2024,6,20,11:51:50.360,-2.034,49,-0.4,0.2,0.1,-0.99,-0.09,-0.09,0.99997,0.00037,0.00017,-0.00013,0.003,0.0000
2024,6,20,11:51:50.360,-2.032,51,-0.3,0.1,0.1,-0.99,-0.09,-0.09,0.99997,0.00037,0.00017,-0.00013,0.003,0.0000
2024,6,20,11:51:50.360,-2.030,53,-0.2,0.2,0.3,-0.98,-0.08,-0.09,0.99997,0.00037,0.00017,-0.00013,0.003,0.0000
2024,6,20,11:51:50.360,-2.028,55,-0.2,0.1,0.1,-0.99,-0.08,-0.09,0.99997,0.00037,0.00017,-0.00013,0.003,0.0000
2024,6,20,11:51:50.360,-2.026,57,-0.2,0.3,0.2,-0.99,-0.08,-0.09,0.99997,0.00037,0.00017,-0.00013,0.003,0.0000
2024,6,20,11:51:50.360,-2.024,59,0.0,0.0,0.2,-0.99,-0.08,-0.09,0.99997,0.00037,0.00017,-0.00010,0.003,0.0000
2024,6,20,11:51:50.931,-2.022,61,0.0,0.2,0.2,-0.99,-0.08,-0.09,0.99997,0.00037,0.00017,-0.00010,0.003,0.0000
2024,6,20,11:51:50.931,-2.020,63,0.0,0.2,0.0,-0.98,-0.07,-0.09,0.99997,0.00037,0.00017,-0.00010,0.003,0.0000
2024,6,20,11:51:50.931,-2.018,65,0.1,0.2,0.0,-0.98,-0.08,-0.09,0.99997,0.00037,0.00020,-0.00010,0.003,0.0000
2024,6,20,11:51:50.931,-2.016,67,0.0,0.1,0.1,-0.99,-0.07,-0.09,0.99997,0.00037,0.00020,-0.00010,0.003,0.0000
2024,6,20,11:51:50.931,-2.014,69,0.1,0.2,0.1,-0.99,-0.07,-0.10,0.99997,0.00037,0.00020,-0.00010,0.003,0.0000
2024,6,20,11:51:50.931,-2.012,71,0.0,0.2,0.1,-0.99,-0.08,-0.09,0.99997,0.00037,0.00020,-0.00010,0.003,0.0000
2024,6,20,11:51:50.931,-2.010,73,0.1,0.1,0.1,-0.98,-0.07,-0.09,0.99997,0.00037,0.00020,-0.00010,0.003,0.0000
2024,6,20,11:51:50.931,-2.008,75,0.1,0.1,0.1,-0.99,-0.07,-0.09,0.99997,0.00037,0.00020,-0.00010,0.003,0.0000
2024,6,20,11:51:50.931,-2.006,77,0.0,0.1,0.2,-0.99,-0.08,-0.10,0.99997,0.00037,0.00020,-0.00010,0.003,0.0000
2024,6,20,11:51:50.990,-2.004,79,0.0,0.2,0.1,-0.98,-0.08,-0.09,0.99997,0.00037,0.00020,-0.00010,0.003,0.0000
2024,6,20,11:51:50.990,-2.002,81,0.2,0.0,0.1,-0.97,-0.08,-0.08,0.99997,0.00037,0.00020,-0.00010,0.003,0.0000
2024,6,20,11:51:50.990,-2.000,83,0.1,0.2,0.0,-0.99,-0.07,-0.08,0.99997,0.00037,0.00020,-0.00010,0.003,0.0000
2024,6,20,11:51:50.990,-1.998,85,0.1,0.1,0.2,-0.99,-0.09,-0.09,0.99997,0.00037,0.00023,-0.00010,0.003,0.0000
2024,6,20,11:51:50.990,-1.996,87,0.2,0.1,0.1,-0.98,-0.09,-0.08,0.99997,0.00040,0.00023,-0.00010,0.003,0.0000
2024,6,20,11:51:50.990,-1.994,89,0.2,0.0,0.1,-0.99,-0.07,-0.08,0.99997,0.00040,0.00023,-0.00007,0.003,0.0000
2024,6,20,11:51:50.990,-1.992,91,0.1,0.0,0.0,-0.99,-0.08,-0.09,0.99997,0.00040,0.00023,-0.00007,0.003,0.0000
2024,6,20,11:51:50.990,-1.990,93,0.2,0.0,0.1,-0.98,-0.07,-0.09,0.99997,0.00040,0.00023,-0.00007,0.003,0.0000
2024,6,20,11:51:50.990,-1.988,95,0.2,0.0,0.1,-0.98,-0.08,-0.09,0.99997,0.00040,0.00023,-0.00007,0.003,0.0000
2024,6,20,11:51:51.050,-1.986,97,0.2,0.0,0.1,-0.99,-0.08,-0.09,0.99997,0.00040,0.00023,-0.00007,0.003,0.0000
2024,6,20,11:51:51.050,-1.984,99,0.0,0.1,0.1,-0.98,-0.07,-0.09,0.99997,0.00040,0.00023,-0.00007,0.003,0.0000
2024,6,20,11:51:51.050,-1.982,101,0.0,0.0,0.1,-0.99,-0.08,-0.09,0.99997,0.00040,0.00023,-0.00007,0.003,0.0000
2024,6,20,11:51:51.050,-1.980,103,0.1,0.0,0.0,-0.98,-0.08,-0.09,0.99997,0.00040,0.00023,-0.00007,0.003,0.0000
2024,6,20,11:51:51.050,-1.978,105,0.1,0.0,0.0,-0.98,-0.09,-0.09,0.99997,0.00040,0.00023,-0.00007,0.003,0.0000
2024,6,20,11:51:51.050,-1.976,107,0.0,0.0,0.1,-0.99,-0.08,-0.09,0.99997,0.00040,0.00023,-0.00007,0.003,0.0000
2024,6,20,11:51:51.050,-1.974,109,0.1,0.0,0.1,-0.99,-0.08,-0.09,0.99997,0.00040,0.00023,-0.00007,0.003,0.0000
2024,6,20,11:51:51.050,-1.972,111,0.0,0.0,0.1,-0.99,-0.09,-0.09,0.99997,0.00040,0.00023,-0.00007,0.003,0.0000
2024,6,20,11:51:51.050,-1.970,113,0.0,0.0,0.1,-0.99,-0.08,-0.08,0.99997,0.00040,0.00023,-0.00007,0.003,0.0000
2024,6,20,11:51:51.169,-1.968,115,0.0,0.0,0.0,-0.99,-0.07,-0.08,0.99997,0.00040,0.00023,-0.00007,0.003,0.0000
2024,6,20,11:51:51.169,-1.966,117,-0.1,0.0,0.1,-0.98,-0.09,-0.08,0.99997,0.00040,0.00023,-0.00007,0.003,0.0000
2024,6,20,11:51:51.169,-1.964,119,-0.2,0.0,0.1,-0.99,-0.09,-0.08,0.99997,0.00040,0.00023,-0.00007,0.003,0.0000
2024,6,20,11:51:51.169,-1.962,121,-0.4,0.0,0.1,-0.98,-0.08,-0.09,0.99997,0.00040,0.00023,-0.00007,0.003,0.0000
2024,6,20,11:51:51.169,-1.960,123,-0.4,0.0,0.1,-0.99,-0.09,-0.09,0.99997,0.00040,0.00023,-0.00007,0.003,0.0000
2024,6,20,11:51:51.169,-1.958,125,-0.3,-0.1,0.1,-0.99,-0.09,-0.08,0.99997,0.00040,0.00023,-0.00003,0.003,0.0000
2024,6,20,11:51:51.169,-1.956,127,-0.7,0.0,0.1,-0.98,-0.08,-0.09,0.99997,0.00037,0.00023,-0.00003,0.003,0.0000
2024,6,20,11:51:51.169,-1.954,129,-0.4,-0.2,0.1,-0.98,-0.08,-0.09,0.99997,0.00037,0.00020,-0.00003,0.003,0.0000
2024,6,20,11:51:51.169,-1.952,131,-0.7,0.0,0.1,-0.99,-0.07,-0.09,0.99997,0.00037,0.00020,-0.00003,0.003,0.0000
2024,6,20,11:51:51.231,-1.950,133,-0.7,-0.2,0.1,-0.99,-0.08,-0.09,0.99997,0.00033,0.00020,-0.00003,0.003,0.0000
2024,6,20,11:51:51.231,-1.948,135,-0.8,-0.1,0.2,-0.99,-0.08,-0.09,0.99997,0.00033,0.00020,-0.00003,0.003,0.0000
2024,6,20,11:51:51.231,-1.946,137,-0.8,-0.1,0.1,-0.99,-0.08,-0.09,0.99997,0.00030,0.00020,-0.00003,0.003,0.0000
2024,6,20,11:51:51.232,-1.944,139,-0.9,0.0,0.1,-0.98,-0.08,-0.09,0.99997,0.00030,0.00020,-0.00003,0.003,0.0000
2024,6,20,11:51:51.232,-1.942,141,-0.7,-0.2,0.1,-0.99,-0.08,-0.09,0.99997,0.00027,0.00020,-0.00003,0.003,0.0000
2024,6,20,11:51:51.232,-1.940,143,-0.8,0.0,0.1,-0.99,-0.08,-0.09,0.99997,0.00027,0.00020,-0.00003,0.003,0.0000
2024,6,20,11:51:51.232,-1.938,145,-0.8,0.0,0.1,-0.99,-0.08,-0.09,0.99997,0.00027,0.00020,-0.00003,0.003,0.0000
2024,6,20,11:51:51.232,-1.936,147,-0.7,-0.1,0.1,-0.98,-0.08,-0.10,0.99997,0.00023,0.00020,-0.00003,0.003,0.0000
2024,6,20,11:51:51.232,-1.934,149,-0.6,0.0,0.2,-0.99,-0.09,-0.09,0.99997,0.00023,0.00020,0.00000,0.003,0.0000
2024,6,20,11:51:51.290,-1.932,151,-0.4,-0.2,0.1,-0.98,-0.08,-0.09,0.99997,0.00023,0.00020,0.00000,0.003,0.0000
2024,6,20,11:51:51.290,-1.930,153,-0.4,0.0,0.3,-0.99,-0.08,-0.09,0.99997,0.00020,0.00020,0.00000,0.003,0.0000
2024,6,20,11:51:51.290,-1.928,155,-0.4,0.0,0.0,-0.98,-0.09,-0.09,0.99997,0.00020,0.00020,0.00000,0.003,0.0000
2024,6,20,11:51:51.290,-1.926,157,-0.2,0.0,0.1,-0.98,-0.09,-0.09,1.00000,0.00020,0.00020,0.00000,0.003,0.0000
2024,6,20,11:51:51.290,-1.924,159,0.0,0.0,0.1,-0.98,-0.08,-0.09,1.00000,0.00020,0.00020,0.00000,0.003,0.0000
2024,6,20,11:51:51.290,-1.922,161,-0.1,0.0,0.2,-0.99,-0.09,-0.09,1.00000,0.00020,0.00020,0.00000,0.003,0.0000
2024,6,20,11:51:51.290,-1.920,163,0.2,-0.2,0.2,-0.98,-0.08,-0.09,1.00000,0.00020,0.00017,0.00000,0.003,0.0000
2024,6,20,11:51:51.290,-1.918,165,0.1,0.0,0.1,-0.99,-0.08,-0.09,1.00000,0.00020,0.00017,0.00000,0.003,0.0000
2024,6,20,11:51:51.290,-1.916,167,0.2,0.0,0.3,-0.98,-0.08,-0.09,1.00000,0.00020,0.00017,0.00000,0.003,0.0000
2024,6,20,11:51:51.350,-1.914,169,0.2,0.0,0.1,-0.99,-0.08,-0.08,1.00000,0.00020,0.00017,0.00000,0.003,0.0000
2024,6,20,11:51:51.350,-1.912,171,0.3,0.0,0.2,-0.99,-0.07,-0.08,1.00000,0.00023,0.00017,0.00000,0.003,0.0000
2024,6,20,11:51:51.350,-1.910,173,0.4,0.0,0.2,-0.99,-0.08,-0.08,1.00000,0.00023,0.00017,0.00000,0.003,0.0000
2024,6,20,11:51:51.350,-1.908,175,0.3,0.1,0.2,-0.99,-0.08,-0.08,1.00000,0.00023,0.00017,0.00000,0.003,0.0000
2024,6,20,11:51:51.350,-1.906,177,0.4,0.0,0.3,-0.99,-0.08,-0.08,1.00000,0.00023,0.00017,0.00000,0.003,0.0000
2024,6,20,11:51:51.350,-1.904,179,0.5,0.0,0.1,-0.99,-0.08,-0.08,1.00000,0.00027,0.00017,0.00000,0.003,0.0000
2024,6,20,11:51:51.350,-1.902,181,0.4,0.0,0.3,-0.99,-0.08,-0.08,1.00000,0.00027,0.00017,0.00000,0.003,0.0000
2024,6,20,11:51:51.350,-1.900,183,0.3,0.0,0.3,-0.98,-0.08,-0.08,1.00000,0.00027,0.00017,0.00003,0.003,0.0000
2024,6,20,11:51:51.350,-1.898,185,0.4,-0.2,0.2,-0.99,-0.08,-0.08,1.00000,0.00027,0.00017,0.00003,0.003,0.0000
2024,6,20,11:51:51.410,-1.896,187,0.4,-0.1,0.3,-0.98,-0.08,-0.08,1.00000,0.00027,0.00017,0.00003,0.003,0.0000
2024,6,20,11:51:51.410,-1.894,189,0.2,0.0,0.3,-0.99,-0.08,-0.07,1.00000,0.00030,0.00017,0.00003,0.003,0.0000
2024,6,20,11:51:51.410,-1.892,191,0.2,0.0,0.3,-0.99,-0.08,-0.07,1.00000,0.00030,0.00017,0.00003,0.003,0.0000
2024,6,20,11:51:51.410,-1.890,193,0.3,-0.2,0.3,-0.99,-0.08,-0.07,1.00000,0.00030,0.00017,0.00007,0.003,0.0000
2024,6,20,11:51:51.410,-1.888,195,0.2,0.0,0.2,-0.99,-0.08,-0.07,1.00000,0.00030,0.00017,0.00007,0.003,0.0000
2024,6,20,11:51:51.410,-1.886,197,0.2,0.0,0.2,-0.99,-0.08,-0.08,1.00000,0.00030,0.00017,0.00007,0.003,0.0000
2024,6,20,11:51:51.410,-1.884,199,0.1,-0.2,0.3,-0.99,-0.08,-0.07,1.00000,0.00030,0.00017,0.00007,0.004,0.0000
2024,6,20,11:51:51.410,-1.882,201,0.2,0.0,0.1,-0.99,-0.08,-0.07,1.00000,0.00030,0.00017,0.00007,0.003,0.0000
2024,6,20,11:51:51.410,-1.880,203,0.2,0.0,0.2,-0.99,-0.07,-0.07,1.00000,0.00033,0.00017,0.00007,0.003,0.0000
2024,6,20,11:51:51.558,-1.878,205,0.0,0.1,0.2,-0.99,-0.08,-0.07,1.00000,0.00033,0.00017,0.00007,0.003,0.0000
2024,6,20,11:51:51.558,-1.876,207,0.0,0.0,0.1,-0.98,-0.08,-0.07,1.00000,0.00033,0.00017,0.00007,0.003,0.0000
2024,6,20,11:51:51.558,-1.874,209,0.1,-0.1,0.3,-0.99,-0.09,-0.07,1.00000,0.00033,0.00017,0.00010,0.003,0.0000
2024,6,20,11:51:51.558,-1.872,211,0.0,0.0,0.3,-0.99,-0.08,-0.08,1.00000,0.00033,0.00017,0.00010,0.003,0.0000
2024,6,20,11:51:51.558,-1.870,213,-0.2,0.0,0.1,-0.99,-0.08,-0.06,1.00000,0.00033,0.00017,0.00010,0.003,0.0000
2024,6,20,11:51:51.558,-1.868,215,-0.1,0.1,0.1,-0.99,-0.08,-0.06,1.00000,0.00030,0.00017,0.00010,0.003,0.0000
2024,6,20,11:51:51.558,-1.866,217,-0.2,0.0,0.2,-0.99,-0.08,-0.07,1.00000,0.00030,0.00017,0.00010,0.003,0.0000
2024,6,20,11:51:51.558,-1.864,219,-0.2,-0.1,0.1,-0.99,-0.09,-0.06,1.00000,0.00030,0.00017,0.00010,0.003,0.0000
2024,6,20,11:51:51.558,-1.862,221,-0.3,0.0,0.3,-0.99,-0.08,-0.07,1.00000,0.00030,0.00017,0.00010,0.003,0.0000
2024,6,20,11:51:51.620,-1.860,223,-0.4,0.0,0.3,-0.98,-0.08,-0.07,1.00000,0.00030,0.00017,0.00010,0.003,0.0000
2024,6,20,11:51:51.620,-1.858,225,-0.4,0.0,0.2,-0.99,-0.08,-0.07,1.00000,0.00030,0.00017,0.00013,0.003,0.0000
2024,6,20,11:51:51.620,-1.856,227,-0.6,0.0,0.1,-0.98,-0.07,-0.07,1.00000,0.00027,0.00017,0.00013,0.003,0.0000
2024,6,20,11:51:51.620,-1.854,229,-0.9,0.0,0.2,-0.99,-0.08,-0.07,1.00000,0.00027,0.00017,0.00013,0.003,0.0000
2024,6,20,11:51:51.620,-1.852,231,-0.8,0.0,0.2,-0.99,-0.08,-0.07,1.00000,0.00023,0.00017,0.00013,0.003,0.0000
2024,6,20,11:51:51.620,-1.850,233,-0.9,-0.1,0.1,-0.98,-0.07,-0.07,1.00000,0.00023,0.00017,0.00013,0.003,0.0000
2024,6,20,11:51:51.620,-1.848,235,-1.1,0.0,0.1,-0.99,-0.08,-0.07,1.00000,0.00020,0.00017,0.00013,0.003,0.0000
2024,6,20,11:51:51.620,-1.846,237,-1.2,0.1,0.2,-0.99,-0.08,-0.08,1.00000,0.00020,0.00017,0.00013,0.003,0.0000
2024,6,20,11:51:51.620,-1.844,239,-1.1,0.0,0.3,-0.98,-0.07,-0.07,1.00000,0.00017,0.00017,0.00013,0.003,0.0000
2024,6,20,11:51:51.680,-1.842,241,-1.2,0.0,0.2,-0.98,-0.08,-0.07,1.00000,0.00013,0.00017,0.00013,0.003,0.0000
2024,6,20,11:51:51.680,-1.840,243,-1.3,0.0,0.2,-0.98,-0.08,-0.08,1.00000,0.00013,0.00017,0.00017,0.003,0.0000
2024,6,20,11:51:51.680,-1.838,245,-1.3,0.0,0.2,-0.99,-0.07,-0.07,1.00000,0.00010,0.00017,0.00017,0.003,0.0000
2024,6,20,11:51:51.680,-1.836,247,-1.3,0.0,0.3,-0.99,-0.07,-0.08,1.00000,0.00007,0.00017,0.00017,0.003,0.0000
2024,6,20,11:51:51.680,-1.834,249,-1.5,0.1,0.1,-0.99,-0.07,-0.08,1.00000,0.00003,0.00017,0.00017,0.003,0.0000
2024,6,20,11:51:51.680,-1.832,1,-1.3,0.0,0.2,-0.99,-0.08,-0.07,1.00000,0.00003,0.00017,0.00017,0.003,0.0000
2024,6,20,11:51:51.680,-1.830,3,-1.5,0.1,0.1,-0.99,-0.08,-0.08,1.00000,0.00000,0.00017,0.00017,0.003,0.0000
2024,6,20,11:51:51.680,-1.828,5,-1.3,0.1,0.3,-0.99,-0.08,-0.08,1.00000,0.00000,0.00017,0.00017,0.003,0.0000
2024,6,20,11:51:51.680,-1.826,7,-1.3,0.1,0.1,-0.98,-0.07,-0.08,1.00000,-0.00003,0.00017,0.00017,0.003,0.0000
2024,6,20,11:51:51.740,-1.824,9,-1.2,0.0,0.1,-0.99,-0.08,-0.07,1.00000,-0.00003,0.00017,0.00017,0.003,0.0000
2024,6,20,11:51:51.740,-1.822,11,-1.2,0.1,0.1,-0.99,-0.07,-0.07,1.00000,-0.00007,0.00017,0.00020,0.003,0.0000
2024,6,20,11:51:51.740,-1.820,13,-1.2,0.0,0.2,-0.99,-0.07,-0.09,1.00000,-0.00010,0.00017,0.00020,0.003,0.0000
2024,6,20,11:51:51.740,-1.818,15,-1.1,0.0,0.2,-0.98,-0.08,-0.09,1.00000,-0.00010,0.00017,0.00020,0.003,0.0000
2024,6,20,11:51:51.740,-1.816,17,-1.1,0.0,0.2,-0.99,-0.06,-0.08,1.00000,-0.00013,0.00017,0.00020,0.003,0.0000
2024,6,20,11:51:51.740,-1.814,19,-1.0,0.0,0.1,-0.99,-0.07,-0.09,1.00000,-0.00013,0.00017,0.00020,0.003,0.0000
2024,6,20,11:51:51.740,-1.812,21,-0.9,0.1,0.1,-0.98,-0.06,-0.08,1.00000,-0.00017,0.00017,0.00020,0.003,0.0000
2024,6,20,11:51:51.740,-1.810,23,-0.9,0.1,0.1,-0.99,-0.06,-0.09,1.00000,-0.00017,0.00017,0.00020,0.003,0.0000
2024,6,20,11:51:51.740,-1.808,25,-0.9,0.0,0.1,-0.99,-0.06,-0.08,1.00000,-0.00020,0.00017,0.00020,0.003,0.0000
2024,6,20,11:51:51.860,-1.806,27,-0.8,0.1,0.1,-0.99,-0.07,-0.08,1.00000,-0.00020,0.00017,0.00020,0.003,0.0000
2024,6,20,11:51:51.860,-1.804,29,-0.6,0.2,0.1,-0.98,-0.07,-0.08,1.00000,-0.00023,0.00017,0.00020,0.003,0.0000
2024,6,20,11:51:51.860,-1.802,31,-0.6,0.1,0.2,-0.99,-0.07,-0.08,1.00000,-0.00023,0.00017,0.00020,0.003,0.0000
2024,6,20,11:51:51.860,-1.800,33,-0.6,0.1,0.1,-0.99,-0.06,-0.08,1.00000,-0.00023,0.00017,0.00023,0.003,0.0000
2024,6,20,11:51:51.860,-1.798,35,-0.4,0.1,0.0,-1.00,-0.07,-0.08,1.00000,-0.00023,0.00020,0.00023,0.003,0.0000
2024,6,20,11:51:51.860,-1.796,37,-0.4,0.1,0.1,-1.00,-0.08,-0.08,1.00000,-0.00027,0.00020,0.00023,0.003,0.0000
2024,6,20,11:51:51.860,-1.794,39,-0.4,0.1,0.1,-0.99,-0.07,-0.08,1.00000,-0.00027,0.00020,0.00023,0.003,0.0000
2024,6,20,11:51:51.860,-1.792,41,-0.3,0.1,0.2,-0.99,-0.06,-0.09,0.99997,-0.00027,0.00020,0.00023,0.003,0.0000
2024,6,20,11:51:51.860,-1.790,43,-0.4,0.1,0.2,-0.99,-0.06,-0.08,0.99997,-0.00027,0.00020,0.00023,0.003,0.0000
2024,6,20,11:51:51.920,-1.788,45,-0.4,0.1,0.0,-0.99,-0.07,-0.09,0.99997,-0.00030,0.00020,0.00023,0.003,0.0000
2024,6,20,11:51:51.920,-1.786,47,-0.4,0.2,0.1,-0.99,-0.07,-0.08,0.99997,-0.00030,0.00020,0.00023,0.003,0.0000
2024,6,20,11:51:51.920,-1.784,49,-0.4,0.0,0.2,-0.98,-0.07,-0.09,0.99997,-0.00030,0.00020,0.00023,0.003,0.0000
2024,6,20,11:51:51.920,-1.782,51,-0.2,0.1,0.1,-1.00,-0.06,-0.09,0.99997,-0.00030,0.00020,0.00023,0.003,0.0000
2024,6,20,11:51:51.920,-1.780,53,-0.4,0.0,0.3,-0.99,-0.06,-0.08,0.99997,-0.00030,0.00020,0.00023,0.003,0.0000
2024,6,20,11:51:51.920,-1.778,55,-0.4,0.1,0.3,-0.99,-0.05,-0.09,0.99997,-0.00033,0.00020,0.00027,0.003,0.0000
2024,6,20,11:51:51.920,-1.776,57,-0.4,0.0,0.1,-0.99,-0.06,-0.09,0.99997,-0.00033,0.00020,0.00027,0.003,0.0000
2024,6,20,11:51:51.920,-1.774,59,-0.4,0.2,0.1,-0.98,-0.06,-0.09,0.99997,-0.00033,0.00020,0.00027,0.003,0.0000
2024,6,20,11:51:51.920,-1.772,61,-0.3,0.2,0.2,-0.99,-0.06,-0.09,0.99997,-0.00033,0.00020,0.00027,0.003,0.0000
2024,6,20,11:51:51.980,-1.770,63,-0.4,0.1,0.1,-0.99,-0.06,-0.09,0.99997,-0.00033,0.00020,0.00027,0.003,0.0000
2024,6,20,11:51:51.980,-1.768,65,-0.5,0.2,0.1,-0.99,-0.06,-0.09,0.99997,-0.00037,0.00023,0.00027,0.003,0.0000
2024,6,20,11:51:51.980,-1.766,67,-0.4,0.1,0.1,-0.99,-0.06,-0.09,0.99997,-0.00037,0.00023,0.00027,0.003,0.0000
2024,6,20,11:51:51.980,-1.764,69,-0.2,0.0,0.1,-0.98,-0.06,-0.09,0.99997,-0.00037,0.00023,0.00027,0.003,0.0000
2024,6,20,11:51:51.981,-1.762,71,-0.3,0.1,0.1,-0.99,-0.06,-0.09,1.00000,0.00000,0.00000,0.00000,0.003,0.0000
2024,6,20,11:51:51.981,-1.760,73,-0.4,0.1,0.1,-0.99,-0.07,-0.09,1.00000,0.00000,0.00000,0.00000,0.003,0.0000
2024,6,20,11:51:51.981,-1.758,75,-0.4,0.0,0.1,-0.98,-0.06,-0.08,1.00000,0.00000,0.00000,0.00000,0.003,0.0000
2024,6,20,11:51:51.981,-1.756,77,-0.2,0.1,0.0,-0.99,-0.07,-0.09,1.00000,0.00000,0.00000,0.00000,0.003,0.0000
2024,6,20,11:51:51.981,-1.754,79,-0.3,0.0,-0.1,-0.99,-0.06,-0.09,1.00000,0.00000,0.00000,0.00000,0.003,0.0000
2024,6,20,11:51:52.038,-1.752,81,-0.1,0.0,0.0,-0.99,-0.06,-0.09,1.00000,0.00000,0.00000,0.00000,0.003,0.0000
2024,6,20,11:51:52.038,-1.750,83,-0.2,0.0,0.0,-1.00,-0.06,-0.09,1.00000,-0.00003,0.00000,0.00000,0.003,0.0000
2024,6,20,11:51:52.038,-1.748,85,-0.4,0.1,0.0,-0.99,-0.06,-0.09,1.00000,-0.00003,0.00000,0.00000,0.003,0.0000
2024,6,20,11:51:52.038,-1.746,87,-0.1,0.0,-0.1,-0.98,-0.06,-0.08,1.00000,-0.00003,0.00000,0.00000,0.003,0.0000
2024,6,20,11:51:52.038,-1.744,89,-0.2,0.0,0.0,-0.99,-0.06,-0.09,1.00000,-0.00003,0.00000,0.00000,0.003,0.0000
2024,6,20,11:51:52.038,-1.742,91,-0.2,0.0,-0.1,-0.99,-0.06,-0.08,1.00000,-0.00003,0.00000,0.00000,0.003,0.0000
2024,6,20,11:51:52.038,-1.740,93,-0.2,0.0,0.0,-0.99,-0.06,-0.08,1.00000,-0.00003,0.00000,0.00000,0.003,0.0000
2024,6,20,11:51:52.038,-1.738,95,-0.2,0.0,0.0,-0.98,-0.06,-0.09,1.00000,-0.00003,0.00000,0.00000,0.003,0.0000
2024,6,20,11:51:52.038,-1.736,97,-0.2,0.0,-0.1,-0.98,-0.06,-0.09,1.00000,-0.00007,0.00000,0.00000,0.003,0.0000
2024,6,20,11:51:52.100,-1.734,99,-0.1,0.0,-0.1,-0.99,-0.06,-0.09,1.00000,-0.00007,0.00000,0.00000,0.003,0.0000
2024,6,20,11:51:52.100,-1.732,101,-0.2,0.0,-0.1,-0.99,-0.06,-0.09,1.00000,-0.00007,0.00000,0.00000,0.003,0.0000
2024,6,20,11:51:52.100,-1.730,103,-0.1,0.0,-0.1,-0.99,-0.06,-0.08,1.00000,-0.00007,0.00000,0.00000,0.003,0.0000
2024,6,20,11:51:52.100,-1.728,105,-0.3,0.0,-0.1,-0.99,-0.05,-0.08,1.00000,-0.00007,0.00000,0.00000,0.003,0.0000
2024,6,20,11:51:52.100,-1.726,107,-0.2,0.0,-0.1,-0.99,-0.06,-0.08,1.00000,-0.00007,0.00000,0.00000,0.003,0.0000
2024,6,20,11:51:52.100,-1.724,109,-0.1,0.0,-0.1,-0.99,-0.06,-0.08,1.00000,-0.00007,0.00000,0.00000,0.003,0.0000
2024,6,20,11:51:52.100,-1.722,111,-0.2,0.0,-0.1,-0.99,-0.06,-0.08,1.00000,-0.00007,0.00000,0.00000,0.003,0.0000
2024,6,20,11:51:52.100,-1.720,113,-0.2,0.0,-0.1,-0.99,-0.06,-0.08,1.00000,-0.00010,0.00000,0.00000,0.003,0.0000
2024,6,20,11:51:52.100,-1.718,115,-0.2,0.0,-0.2,-0.98,-0.06,-0.08,1.00000,-0.00010,0.00000,0.00000,0.003,0.0000
2024,6,20,11:51:52.220,-1.716,117,-0.1,0.0,-0.2,-0.99,-0.06,-0.08,1.00000,-0.00010,0.00000,0.00000,0.003,0.0000
2024,6,20,11:51:52.220,-1.714,119,-0.1,0.0,-0.1,-0.99,-0.06,-0.08,1.00000,-0.00010,0.00000,0.00000,0.003,0.0000
2024,6,20,11:51:52.220,-1.712,121,-0.1,0.0,-0.1,-0.99,-0.06,-0.09,1.00000,-0.00010,0.00000,-0.00003,0.003,0.0000
2024,6,20,11:51:52.220,-1.710,123,0.0,0.0,-0.1,-0.98,-0.06,-0.08,1.00000,-0.00010,0.00000,-0.00003,0.003,0.0000
2024,6,20,11:51:52.220,-1.708,125,-0.1,0.1,-0.2,-0.98,-0.06,-0.08,1.00000,-0.00010,0.00000,-0.00003,0.003,0.0000
2024,6,20,11:51:52.220,-1.706,127,0.0,0.0,-0.1,-0.99,-0.06,-0.10,1.00000,-0.00010,0.00000,-0.00003,0.003,0.0000
2024,6,20,11:51:52.220,-1.704,129,0.0,0.0,-0.1,-0.99,-0.06,-0.09,1.00000,-0.00010,0.00000,-0.00003,0.003,0.0000
2024,6,20,11:51:52.220,-1.702,131,0.2,0.0,-0.1,-0.99,-0.06,-0.09,1.00000,-0.00010,0.00000,-0.00003,0.003,0.0000
2024,6,20,11:51:52.220,-1.700,133,0.2,0.0,-0.2,-0.99,-0.05,-0.09,1.00000,-0.00010,0.00000,-0.00003,0.003,0.0000
2024,6,20,11:51:52.280,-1.698,135,0.4,0.0,-0.1,-0.99,-0.05,-0.08,1.00000,-0.00007,0.00000,-0.00003,0.003,0.0000
2024,6,20,11:51:52.280,-1.696,137,0.5,0.0,-0.1,-0.99,-0.06,-0.09,1.00000,-0.00007,0.00000,-0.00003,0.003,0.0000
2024,6,20,11:51:52.280,-1.694,139,0.7,0.0,-0.2,-0.99,-0.05,-0.08,1.00000,-0.00007,0.00000,-0.00003,0.003,0.0000
2024,6,20,11:51:52.280,-1.692,141,0.5,0.1,-0.3,-0.99,-0.05,-0.09,1.00000,-0.00003,0.00000,-0.00007,0.003,0.0000
2024,6,20,11:51:52.280,-1.690,143,0.8,0.0,-0.3,-0.98,-0.07,-0.09,1.00000,-0.00003,0.00000,-0.00007,0.003,0.0000
2024,6,20,11:51:52.280,-1.688,145,0.9,0.0,-0.2,-0.99,-0.06,-0.08,1.00000,0.00000,0.00000,-0.00007,0.003,0.0000
2024,6,20,11:51:52.280,-1.686,147,0.9,0.1,-0.2,-0.99,-0.06,-0.08,1.00000,0.00000,0.00000,-0.00007,0.003,0.0000
2024,6,20,11:51:52.280,-1.684,149,1.1,0.0,-0.2,-0.99,-0.07,-0.08,1.00000,0.00000,0.00000,-0.00007,0.003,0.0000
2024,6,20,11:51:52.280,-1.682,151,1.0,0.0,-0.3,-0.99,-0.07,-0.08,1.00000,0.00000,0.00000,-0.00007,0.003,0.0000
2024,6,20,11:51:52.340,-1.680,153,1.1,0.1,-0.2,-0.99,-0.08,-0.08,1.00000,0.00003,0.00000,-0.00007,0.003,0.0000
2024,6,20,11:51:52.340,-1.678,155,1.1,0.0,-0.3,-0.99,-0.06,-0.08,1.00000,0.00003,0.00000,-0.00010,0.003,0.0000
2024,6,20,11:51:52.340,-1.676,157,1.1,0.1,-0.2,-0.99,-0.07,-0.08,1.00000,0.00007,0.00000,-0.00010,0.003,0.0000
2024,6,20,11:51:52.340,-1.674,159,1.2,0.0,-0.3,-0.99,-0.07,-0.09,1.00000,0.00010,0.00000,-0.00010,0.003,0.0000
2024,6,20,11:51:52.340,-1.672,161,1.3,0.1,-0.3,-0.98,-0.06,-0.08,1.00000,0.00010,0.00000,-0.00010,0.003,0.0000
2024,6,20,11:51:52.340,-1.670,163,1.4,0.1,-0.3,-0.99,-0.07,-0.09,1.00000,0.00013,0.00000,-0.00010,0.003,0.0000
2024,6,20,11:51:52.340,-1.668,165,1.3,0.1,-0.3,-0.99,-0.06,-0.09,1.00000,0.00017,0.00000,-0.00010,0.003,0.0000
2024,6,20,11:51:52.340,-1.666,167,1.3,0.0,-0.2,-0.98,-0.07,-0.09,1.00000,0.00020,0.00000,-0.00013,0.003,0.0000
2024,6,20,11:51:52.340,-1.664,169,1.2,0.1,-0.2,-0.99,-0.07,-0.08,1.00000,0.00020,0.00000,-0.00013,0.003,0.0000
2024,6,20,11:51:52.401,-1.662,171,1.2,0.1,-0.2,-0.99,-0.07,-0.09,1.00000,0.00023,0.00000,-0.00013,0.003,0.0000
2024,6,20,11:51:52.401,-1.660,173,1.4,0.0,-0.3,-0.99,-0.07,-0.08,1.00000,0.00027,0.00000,-0.00013,0.003,0.0000
2024,6,20,11:51:52.401,-1.658,175,1.3,0.1,-0.3,-0.99,-0.07,-0.08,1.00000,0.00027,0.00000,-0.00013,0.003,0.0000
2024,6,20,11:51:52.401,-1.656,177,1.4,0.0,-0.3,-0.99,-0.07,-0.08,1.00000,0.00030,0.00000,-0.00013,0.003,0.0000
2024,6,20,11:51:52.401,-1.654,179,1.4,0.1,-0.3,-0.99,-0.08,-0.08,1.00000,0.00033,0.00000,-0.00017,0.003,0.0000
2024,6,20,11:51:52.401,-1.652,181,1.1,0.1,-0.3,-0.99,-0.08,-0.07,1.00000,0.00033,0.00003,-0.00017,0.003,0.0000
2024,6,20,11:51:52.401,-1.650,183,1.3,0.1,-0.5,-0.99,-0.07,-0.08,0.99997,0.00037,0.00003,-0.00017,0.003,0.0000
2024,6,20,11:51:52.401,-1.648,185,1.4,0.0,-0.3,-0.99,-0.07,-0.08,0.99997,0.00040,0.00003,-0.00017,0.003,0.0000
2024,6,20,11:51:52.401,-1.646,187,1.4,0.1,-0.3,-0.99,-0.08,-0.08,0.99997,0.00043,0.00003,-0.00017,0.003,0.0000
2024,6,20,11:51:52.462,-1.644,189,1.5,0.0,-0.3,-0.99,-0.07,-0.08,0.99997,0.00043,0.00003,-0.00020,0.003,0.0000
2024,6,20,11:51:52.462,-1.642,191,1.4,0.0,-0.3,-0.99,-0.08,-0.07,0.99997,0.00047,0.00003,-0.00020,0.003,0.0000
2024,6,20,11:51:52.462,-1.640,193,1.4,0.0,-0.5,-0.99,-0.08,-0.09,0.99997,0.00050,0.00003,-0.00020,0.003,0.0000
2024,6,20,11:51:52.462,-1.638,195,1.4,0.1,-0.3,-0.99,-0.08,-0.09,0.99997,0.00053,0.00003,-0.00020,0.003,0.0000
2024,6,20,11:51:52.462,-1.636,197,1.4,0.1,-0.4,-0.99,-0.08,-0.08,0.99997,0.00053,0.00003,-0.00020,0.003,0.0000
2024,6,20,11:51:52.462,-1.634,199,1.4,0.0,-0.5,-0.99,-0.08,-0.08,0.99997,0.00057,0.00003,-0.00023,0.003,0.0000
2024,6,20,11:51:52.462,-1.632,201,1.5,0.1,-0.3,-0.98,-0.08,-0.08,0.99997,0.00060,0.00003,-0.00023,0.003,0.0000
2024,6,20,11:51:52.462,-1.630,203,1.4,0.3,-0.3,-0.98,-0.08,-0.08,0.99997,0.00063,0.00003,-0.00023,0.003,0.0000
2024,6,20,11:51:52.462,-1.628,205,1.4,0.0,-0.4,-0.99,-0.09,-0.08,0.99997,0.00067,0.00003,-0.00023,0.003,0.0000
2024,6,20,11:51:52.582,-1.626,207,1.3,0.1,-0.4,-0.99,-0.08,-0.08,0.99997,0.00067,0.00003,-0.00027,0.003,0.0000
2024,6,20,11:51:52.582,-1.624,209,1.3,0.0,-0.4,-0.98,-0.08,-0.09,0.99997,0.00070,0.00003,-0.00027,0.003,0.0000
2024,6,20,11:51:52.582,-1.622,211,1.4,0.0,-0.3,-0.99,-0.09,-0.09,0.99997,0.00073,0.00003,-0.00027,0.003,0.0000
2024,6,20,11:51:52.582,-1.620,213,1.1,0.1,-0.4,-1.00,-0.09,-0.08,0.99997,0.00073,0.00003,-0.00027,0.003,0.0000
2024,6,20,11:51:52.582,-1.618,215,0.9,0.1,-0.4,-0.98,-0.08,-0.07,0.99997,0.00077,0.00003,-0.00027,0.003,0.0000
2024,6,20,11:51:52.582,-1.616,217,0.9,0.1,-0.3,-0.98,-0.09,-0.08,0.99997,0.00077,0.00007,-0.00030,0.003,0.0000
2024,6,20,11:51:52.582,-1.614,219,0.9,0.1,-0.3,-0.99,-0.09,-0.07,0.99997,0.00080,0.00007,-0.00030,0.003,0.0000
2024,6,20,11:51:52.582,-1.612,221,0.7,0.1,-0.3,-0.99,-0.09,-0.08,0.99997,0.00080,0.00007,-0.00030,0.003,0.0000
2024,6,20,11:51:52.582,-1.610,223,0.6,0.1,-0.4,-0.99,-0.09,-0.08,0.99997,0.00083,0.00007,-0.00030,0.003,0.0000
2024,6,20,11:51:52.640,-1.608,225,0.7,0.0,-0.3,-0.99,-0.10,-0.08,0.99997,0.00083,0.00007,-0.00033,0.003,0.0000
2024,6,20,11:51:52.640,-1.606,227,0.5,0.0,-0.3,-0.98,-0.09,-0.08,0.99997,0.00083,0.00007,-0.00033,0.003,0.0000
2024,6,20,11:51:52.640,-1.604,229,0.4,0.0,-0.2,-0.99,-0.10,-0.08,0.99997,0.00083,0.00007,-0.00033,0.003,0.0000
2024,6,20,11:51:52.640,-1.602,231,0.2,0.0,-0.2,-0.99,-0.09,-0.08,0.99997,0.00087,0.00007,-0.00033,0.003,0.0000
2024,6,20,11:51:52.640,-1.600,233,0.2,0.0,-0.3,-0.99,-0.10,-0.09,0.99997,0.00087,0.00007,-0.00033,0.003,0.0000
2024,6,20,11:51:52.640,-1.598,235,0.2,0.0,-0.3,-0.99,-0.10,-0.08,0.99997,0.00087,0.00007,-0.00033,0.003,0.0000
2024,6,20,11:51:52.640,-1.596,237,0.4,0.0,-0.3,-0.99,-0.09,-0.09,0.99997,0.00087,0.00007,-0.00033,0.003,0.0000
2024,6,20,11:51:52.640,-1.594,239,0.2,0.0,-0.1,-0.99,-0.09,-0.09,0.99997,0.00087,0.00007,-0.00037,0.003,0.0000
2024,6,20,11:51:52.640,-1.592,241,0.1,0.0,-0.2,-0.99,-0.09,-0.09,0.99997,0.00087,0.00007,-0.00037,0.003,0.0000
2024,6,20,11:51:52.701,-1.590,243,0.0,0.1,-0.3,-0.98,-0.09,-0.09,0.99997,0.00087,0.00007,-0.00037,0.003,0.0000
2024,6,20,11:51:52.701,-1.588,245,0.4,0.0,-0.4,-0.98,-0.09,-0.08,0.99997,0.00090,0.00007,-0.00037,0.003,0.0000
2024,6,20,11:51:52.701,-1.586,247,0.4,0.1,-0.3,-0.98,-0.09,-0.09,0.99997,0.00090,0.00007,-0.00037,0.003,0.0000
2024,6,20,11:51:52.701,-1.584,249,0.4,0.0,-0.3,-0.98,-0.09,-0.09,0.99997,0.00090,0.00007,-0.00040,0.003,0.0000
2024,6,20,11:51:52.701,-1.582,1,0.5,0.0,-0.3,-0.98,-0.10,-0.08,0.99997,0.00090,0.00007,-0.00040,0.003,0.0000
2024,6,20,11:51:52.701,-1.580,3,0.6,0.0,-0.2,-0.98,-0.10,-0.08,0.99997,0.00093,0.00007,-0.00040,0.003,0.0000
2024,6,20,11:51:52.701,-1.578,5,0.6,0.2,-0.2,-0.98,-0.10,-0.08,0.99997,0.00093,0.00007,-0.00040,0.003,0.0000
2024,6,20,11:51:52.701,-1.576,7,0.7,0.0,-0.3,-0.99,-0.10,-0.09,0.99997,0.00093,0.00007,-0.00040,0.003,0.0000
2024,6,20,11:51:52.701,-1.574,9,0.8,0.0,-0.1,-0.99,-0.09,-0.08,0.99997,0.00097,0.00007,-0.00040,0.003,0.0000
2024,6,20,11:51:52.760,-1.572,11,0.9,0.0,-0.2,-0.97,-0.10,-0.08,0.99997,0.00097,0.00007,-0.00040,0.003,0.0000
2024,6,20,11:51:52.760,-1.570,13,0.9,0.1,-0.1,-0.98,-0.10,-0.08,0.99997,0.00100,0.00007,-0.00040,0.003,0.0000
2024,6,20,11:51:52.760,-1.568,15,0.7,0.0,-0.1,-0.98,-0.10,-0.09,0.99997,0.00100,0.00007,-0.00040,0.003,0.0000
2024,6,20,11:51:52.760,-1.566,17,0.7,0.1,-0.2,-0.99,-0.10,-0.08,0.99997,0.00103,0.00007,-0.00043,0.003,0.0000
2024,6,20,11:51:52.760,-1.564,19,1.1,0.0,-0.1,-0.99,-0.10,-0.08,0.99997,0.00103,0.00007,-0.00043,0.003,0.0000
2024,6,20,11:51:52.760,-1.562,21,0.9,0.0,-0.1,-0.99,-0.10,-0.09,0.99997,0.00107,0.00007,-0.00043,0.003,0.0000
2024,6,20,11:51:52.760,-1.560,23,0.7,0.1,-0.1,-0.99,-0.10,-0.08,0.99997,0.00107,0.00007,-0.00043,0.003,0.0000
2024,6,20,11:51:52.760,-1.558,25,0.7,0.0,-0.1,-1.00,-0.09,-0.09,0.99997,0.00107,0.00007,-0.00043,0.003,0.0000
2024,6,20,11:51:52.760,-1.556,27,0.7,0.0,-0.1,-0.99,-0.09,-0.08,0.99997,0.00110,0.00007,-0.00043,0.003,0.0000
2024,6,20,11:51:52.820,-1.554,29,0.5,0.0,0.0,-0.99,-0.09,-0.08,0.99997,0.00110,0.00007,-0.00043,0.003,0.0000
2024,6,20,11:51:52.820,-1.552,31,0.4,0.1,-0.1,-0.99,-0.09,-0.07,0.99997,0.00110,0.00010,-0.00043,0.003,0.0000
2024,6,20,11:51:52.820,-1.550,33,0.5,0.0,0.0,-0.98,-0.09,-0.08,0.99997,0.00113,0.00007,-0.00043,0.003,0.0000
2024,6,20,11:51:52.820,-1.548,35,0.2,0.1,0.0,-0.98,-0.08,-0.08,0.99997,0.00113,0.00010,-0.00043,0.003,0.0000
2024,6,20,11:51:52.820,-1.546,37,0.2,0.0,0.0,-0.99,-0.10,-0.08,0.99997,0.00113,0.00010,-0.00043,0.003,0.0000
2024,6,20,11:51:52.820,-1.544,39,0.0,0.0,-0.1,-0.99,-0.09,-0.08,0.99997,0.00113,0.00010,-0.00043,0.003,0.0000
2024,6,20,11:51:52.820,-1.542,41,0.0,0.1,0.0,-0.99,-0.09,-0.08,0.99997,0.00113,0.00010,-0.00043,0.003,0.0000
2024,6,20,11:51:52.820,-1.540,43,0.0,-0.1,0.0,-0.98,-0.09,-0.08,0.99997,0.00113,0.00010,-0.00043,0.003,0.0000
2024,6,20,11:51:52.820,-1.538,45,0.0,0.0,0.0,-0.99,-0.09,-0.07,0.99997,0.00113,0.00007,-0.00043,0.003,0.0000
2024,6,20,11:51:52.941,-1.536,47,-0.1,0.0,0.0,-0.99,-0.09,-0.08,0.99997,0.00113,0.00007,-0.00043,0.003,0.0000
2024,6,20,11:51:52.941,-1.534,49,-0.3,0.1,0.0,-0.99,-0.09,-0.08,0.99997,0.00113,0.00010,-0.00043,0.003,0.0000
2024,6,20,11:51:52.941,-1.532,51,-0.2,-0.1,0.0,-0.98,-0.10,-0.08,0.99997,0.00113,0.00007,-0.00043,0.003,0.0000
2024,6,20,11:51:52.941,-1.530,53,-0.2,0.0,0.0,-0.98,-0.09,-0.08,0.99997,0.00110,0.00007,-0.00043,0.003,0.0000
2024,6,20,11:51:52.941,-1.528,55,-0.2,-0.1,0.0,-0.98,-0.09,-0.08,0.99997,0.00110,0.00007,-0.00043,0.003,0.0000
2024,6,20,11:51:52.941,-1.526,57,-0.3,-0.1,0.0,-0.98,-0.09,-0.09,0.99997,0.00110,0.00007,-0.00043,0.003,0.0000
2024,6,20,11:51:52.941,-1.524,59,-0.6,0.0,0.0,-0.98,-0.09,-0.08,0.99997,0.00110,0.00007,-0.00043,0.003,0.0000
2024,6,20,11:51:52.941,-1.522,61,-0.4,-0.1,0.1,-1.01,-0.09,-0.08,0.99997,0.00107,0.00007,-0.00043,0.003,0.0000
2024,6,20,11:51:52.941,-1.520,63,-0.6,-0.2,0.1,-0.96,-0.09,-0.08,0.99997,0.00107,0.00007,-0.00043,0.003,0.0000
2024,6,20,11:51:53.001,-1.518,65,-0.7,0.0,0.0,-0.99,-0.09,-0.07,0.99997,0.00107,0.00007,-0.00043,0.003,0.0000
2024,6,20,11:51:53.001,-1.516,67,-0.6,-0.1,-0.1,-0.99,-0.10,-0.09,0.99997,0.00103,0.00007,-0.00043,0.003,0.0000
2024,6,20,11:51:53.001,-1.514,69,-0.8,0.0,0.0,-0.98,-0.08,-0.07,0.99997,0.00103,0.00007,-0.00043,0.003,0.0000
2024,6,20,11:51:53.001,-1.512,71,-0.6,-0.2,-0.1,-1.02,-0.08,-0.08,0.99997,0.00103,0.00007,-0.00043,0.003,0.0000
2024,6,20,11:51:53.001,-1.510,73,-0.6,-0.1,0.0,-0.96,-0.08,-0.09,0.99997,0.00100,0.00007,-0.00043,0.003,0.0000
2024,6,20,11:51:53.001,-1.508,75,-0.9,0.0,0.0,-0.97,-0.08,-0.07,0.99997,0.00100,0.00007,-0.00043,0.003,0.0000
2024,6,20,11:51:53.001,-1.506,77,-0.9,0.0,0.1,-1.02,-0.09,-0.11,0.99997,0.00097,0.00007,-0.00043,0.003,0.0000
2024,6,20,11:51:53.001,-1.504,79,-0.6,-0.3,0.1,-0.97,-0.10,-0.10,0.99997,0.00097,0.00003,-0.00043,0.003,0.0000
2024,6,20,11:51:53.001,-1.502,81,-0.9,-0.1,0.1,-0.99,-0.09,-0.07,0.99997,0.00093,0.00003,-0.00043,0.003,0.0000
2024,6,20,11:51:53.061,-1.500,83,-0.9,0.0,0.1,-0.99,-0.09,-0.11,0.99997,0.00093,0.00003,-0.00043,0.003,0.0000
2024,6,20,11:51:53.061,-1.498,85,-1.1,0.0,0.0,-0.95,-0.08,-0.09,0.99997,0.00090,0.00003,-0.00043,0.003,0.0000
2024,6,20,11:51:53.061,-1.496,87,-1.0,0.0,0.1,-1.02,-0.09,-0.09,0.99997,0.00090,0.00003,-0.00043,0.003,0.0000
2024,6,20,11:51:53.061,-1.494,89,-0.9,-0.1,0.0,-1.00,-0.08,-0.10,0.99997,0.00087,0.00003,-0.00043,0.003,0.0000
2024,6,20,11:51:53.061,-1.492,91,-1.1,0.0,0.0,-0.99,-0.09,-0.09,0.99997,0.00087,0.00003,-0.00043,0.003,0.0000
2024,6,20,11:51:53.061,-1.490,93,-1.1,0.0,0.1,-0.99,-0.08,-0.09,0.99997,0.00083,0.00003,-0.00043,0.003,0.0000
2024,6,20,11:51:53.061,-1.488,95,-1.1,-0.1,0.0,-0.99,-0.08,-0.09,0.99997,0.00080,0.00003,-0.00043,0.003,0.0000
2024,6,20,11:51:53.061,-1.486,97,-1.0,-0.2,0.1,-0.99,-0.08,-0.09,0.99997,0.00080,0.00003,-0.00043,0.003,0.0000
2024,6,20,11:51:53.061,-1.484,99,-1.2,0.0,0.1,-0.99,-0.09,-0.10,0.99997,0.00077,0.00003,-0.00043,0.003,0.0000
2024,6,20,11:51:53.121,-1.482,101,-1.1,0.0,0.1,-0.99,-0.08,-0.09,0.99997,0.00077,0.00003,-0.00043,0.003,0.0000
2024,6,20,11:51:53.121,-1.480,103,-0.9,-0.3,0.1,-0.98,-0.07,-0.09,0.99997,0.00073,0.00003,-0.00040,0.003,0.0000
2024,6,20,11:51:53.121,-1.478,105,-0.7,-0.3,0.1,-0.99,-0.07,-0.09,0.99997,0.00073,0.00000,-0.00040,0.003,0.0000
2024,6,20,11:51:53.121,-1.476,107,-0.9,0.0,0.0,-0.99,-0.07,-0.10,0.99997,0.00070,0.00000,-0.00040,0.003,0.0000
2024,6,20,11:51:53.121,-1.474,109,-0.7,0.0,0.1,-0.99,-0.08,-0.10,0.99997,0.00070,0.00000,-0.00040,0.003,0.0000
2024,6,20,11:51:53.121,-1.472,111,-0.6,0.0,0.1,-0.99,-0.08,-0.09,0.99997,0.00067,0.00000,-0.00040,0.003,0.0000
2024,6,20,11:51:53.121,-1.470,113,-0.5,0.0,0.0,-0.97,-0.08,-0.09,0.99997,0.00067,0.00000,-0.00040,0.003,0.0000
2024,6,20,11:51:53.121,-1.468,115,-0.2,-0.2,0.0,-0.98,-0.07,-0.09,0.99997,0.00067,0.00000,-0.00040,0.003,0.0000
2024,6,20,11:51:53.121,-1.466,117,-0.4,0.0,0.0,-0.99,-0.07,-0.09,0.99997,0.00067,0.00000,-0.00040,0.003,0.0000
2024,6,20,11:51:53.181,-1.464,119,-0.2,0.0,0.1,-0.99,-0.08,-0.09,0.99997,0.00067,0.00000,-0.00040,0.003,0.0000
2024,6,20,11:51:53.181,-1.462,121,0.0,0.0,0.1,-0.98,-0.08,-0.09,0.99997,0.00067,0.00000,-0.00040,0.003,0.0000
2024,6,20,11:51:53.181,-1.460,123,0.0,-0.2,0.1,-0.99,-0.08,-0.09,0.99997,0.00067,0.00000,-0.00040,0.003,0.0000
2024,6,20,11:51:53.181,-1.458,125,0.2,-0.2,0.0,-0.99,-0.08,-0.09,0.99997,0.00067,0.00000,-0.00040,0.003,0.0000
2024,6,20,11:51:53.181,-1.456,127,0.2,0.0,0.0,-0.99,-0.08,-0.09,0.99997,0.00067,0.00000,-0.00040,0.003,0.0000
2024,6,20,11:51:53.181,-1.454,129,0.3,0.0,0.1,-0.99,-0.08,-0.09,0.99997,0.00067,0.00000,-0.00040,0.003,0.0000
2024,6,20,11:51:53.181,-1.452,131,0.4,-0.2,0.0,-0.99,-0.07,-0.09,0.99997,0.00067,0.00000,-0.00040,0.003,0.0000
2024,6,20,11:51:53.181,-1.450,133,0.4,0.0,0.1,-0.98,-0.08,-0.08,0.99997,0.00067,0.00000,-0.00040,0.003,0.0000
2024,6,20,11:51:53.181,-1.448,135,0.5,0.0,0.0,-0.99,-0.08,-0.09,0.99997,0.00070,0.00000,-0.00040,0.003,0.0000
2024,6,20,11:51:53.301,-1.446,137,0.5,0.0,0.2,-0.99,-0.08,-0.09,0.99997,0.00070,0.00000,-0.00040,0.003,0.0000
2024,6,20,11:51:53.301,-1.444,139,0.6,0.0,0.1,-0.99,-0.07,-0.09,0.99997,0.00070,0.00000,-0.00040,0.003,0.0000
2024,6,20,11:51:53.301,-1.442,141,0.4,0.0,0.1,-0.99,-0.07,-0.09,0.99997,0.00073,0.00000,-0.00040,0.003,0.0000
2024,6,20,11:51:53.301,-1.440,143,0.4,0.0,0.1,-0.99,-0.08,-0.08,0.99997,0.00073,0.00000,-0.00040,0.003,0.0000
2024,6,20,11:51:53.301,-1.438,145,0.6,0.0,0.1,-0.99,-0.07,-0.09,0.99997,0.00073,0.00000,-0.00037,0.003,0.0000
2024,6,20,11:51:53.301,-1.436,147,0.5,0.0,0.0,-0.98,-0.08,-0.08,0.99997,0.00077,0.00000,-0.00037,0.003,0.0000
2024,6,20,11:51:53.301,-1.434,149,0.4,0.0,0.0,-0.98,-0.08,-0.08,0.99997,0.00077,0.00000,-0.00037,0.003,0.0000
2024,6,20,11:51:53.301,-1.432,151,0.4,0.1,0.1,-0.99,-0.08,-0.08,0.99997,0.00077,0.00000,-0.00037,0.003,0.0000
2024,6,20,11:51:53.301,-1.430,153,0.5,0.0,0.1,-0.98,-0.07,-0.08,0.99997,0.00077,0.00000,-0.00037,0.003,0.0000
2024,6,20,11:51:53.360,-1.428,155,0.6,0.0,0.0,-0.98,-0.07,-0.08,0.99997,0.00080,0.00000,-0.00037,0.003,0.0000
2024,6,20,11:51:53.360,-1.426,157,0.4,-0.1,0.1,-0.99,-0.08,-0.07,0.99997,0.00080,0.00000,-0.00037,0.003,0.0000
2024,6,20,11:51:53.360,-1.424,159,0.4,-0.1,0.0,-0.98,-0.08,-0.07,0.99997,0.00080,0.00000,-0.00037,0.003,0.0000
2024,6,20,11:51:53.360,-1.422,161,0.4,0.0,0.0,-0.99,-0.08,-0.08,0.99997,0.00080,0.00000,-0.00037,0.003,0.0000
2024,6,20,11:51:53.360,-1.420,163,0.3,0.0,0.0,-0.99,-0.08,-0.08,0.99997,0.00083,0.00000,-0.00037,0.003,0.0000
2024,6,20,11:51:53.360,-1.418,165,0.3,0.0,0.1,-0.99,-0.09,-0.09,0.99997,0.00083,0.00000,-0.00037,0.004,0.0000
2024,6,20,11:51:53.360,-1.416,167,0.4,-0.1,0.0,-0.99,-0.08,-0.09,0.99997,0.00083,0.00000,-0.00037,0.003,0.0000
2024,6,20,11:51:53.360,-1.414,169,0.3,0.0,0.1,-0.98,-0.08,-0.07,0.99997,0.00083,0.00000,-0.00037,0.003,0.0000
2024,6,20,11:51:53.360,-1.412,171,0.4,-0.1,0.1,-0.98,-0.08,-0.07,0.99997,0.00083,0.00000,-0.00037,0.003,0.0000
2024,6,20,11:51:53.420,-1.410,173,0.4,-0.2,0.1,-0.99,-0.08,-0.08,0.99997,0.00087,0.00000,-0.00037,0.003,0.0000
2024,6,20,11:51:53.420,-1.408,175,0.1,0.0,0.1,-0.99,-0.09,-0.08,0.99997,0.00087,0.00000,-0.00037,0.003,0.0000
2024,6,20,11:51:53.420,-1.406,177,0.4,-0.3,0.0,-0.98,-0.08,-0.08,0.99997,0.00087,0.00000,-0.00037,0.003,0.0000
2024,6,20,11:51:53.420,-1.404,179,0.4,-0.3,0.1,-0.99,-0.09,-0.08,0.99997,0.00087,-0.00003,-0.00037,0.003,0.0000
2024,6,20,11:51:53.420,-1.402,181,0.2,-0.1,0.0,-0.98,-0.08,-0.07,0.99997,0.00087,-0.00003,-0.00037,0.003,0.0000
2024,6,20,11:51:53.420,-1.400,183,0.1,0.0,0.0,-0.99,-0.07,-0.09,0.99997,0.00087,-0.00003,-0.00037,0.003,0.0000
2024,6,20,11:51:53.420,-1.398,185,0.0,0.0,0.0,-0.98,-0.09,-0.08,0.99997,0.00087,-0.00003,-0.00037,0.003,0.0000
2024,6,20,11:51:53.420,-1.396,187,0.0,-0.2,0.0,-0.98,-0.08,-0.07,0.99997,0.00087,-0.00003,-0.00037,0.003,0.0000
2024,6,20,11:51:53.420,-1.394,189,0.1,-0.1,0.0,-0.99,-0.08,-0.07,0.99997,0.00087,-0.00003,-0.00037,0.003,0.0000
2024,6,20,11:51:53.479,-1.392,191,-0.3,0.0,0.1,-1.00,-0.08,-0.09,0.99997,0.00087,-0.00003,-0.00037,0.003,0.0000
2024,6,20,11:51:53.479,-1.390,193,-0.3,-0.1,0.1,-0.99,-0.08,-0.07,0.99997,0.00087,-0.00003,-0.00037,0.003,0.0000
2024,6,20,11:51:53.479,-1.388,195,-0.4,0.1,-0.1,-0.99,-0.07,-0.08,0.99997,0.00087,-0.00003,-0.00037,0.003,0.0000
2024,6,20,11:51:53.479,-1.386,197,-0.3,0.0,0.0,-0.99,-0.08,-0.08,0.99997,0.00087,-0.00003,-0.00037,0.003,0.0000
2024,6,20,11:51:53.479,-1.384,199,-0.3,-0.2,0.0,-0.98,-0.09,-0.08,0.99997,0.00087,-0.00003,-0.00037,0.003,0.0000
2024,6,20,11:51:53.480,-1.382,201,-0.6,0.1,0.1,-0.97,-0.07,-0.06,0.99997,0.00083,-0.00003,-0.00037,0.003,0.0000
2024,6,20,11:51:53.480,-1.380,203,-0.6,0.0,0.0,-1.01,-0.09,-0.09,0.99997,0.00083,-0.00003,-0.00037,0.003,0.0000
2024,6,20,11:51:53.480,-1.378,205,-0.6,0.0,0.0,-0.96,-0.08,-0.07,0.99997,0.00080,-0.00003,-0.00037,0.003,0.0000
2024,6,20,11:51:53.480,-1.376,207,-0.5,0.0,0.1,-1.01,-0.08,-0.07,0.99997,0.00080,-0.00003,-0.00037,0.003,0.0000
2024,6,20,11:51:53.541,-1.374,209,-0.5,-0.2,0.1,-0.98,-0.08,-0.08,0.99997,0.00080,-0.00003,-0.00037,0.003,0.0000
2024,6,20,11:51:53.541,-1.372,211,-0.7,0.0,0.0,-0.96,-0.07,-0.08,0.99997,0.00077,-0.00003,-0.00037,0.002,0.0000
2024,6,20,11:51:53.541,-1.370,213,-0.5,-0.1,0.0,-1.02,-0.08,-0.09,0.99997,0.00077,-0.00003,-0.00037,0.003,0.0000
2024,6,20,11:51:53.541,-1.368,215,-0.5,-0.1,0.0,-1.00,-0.08,-0.09,0.99997,0.00077,-0.00003,-0.00037,0.003,0.0000
2024,6,20,11:51:53.541,-1.366,217,-0.4,0.0,0.1,-0.98,-0.07,-0.06,0.99997,0.00077,-0.00003,-0.00033,0.003,0.0000
2024,6,20,11:51:53.541,-1.364,219,-0.4,-0.1,0.0,-1.01,-0.07,-0.08,0.99997,0.00073,-0.00003,-0.00033,0.003,0.0000
2024,6,20,11:51:53.541,-1.362,221,-0.4,-0.1,0.1,-0.96,-0.07,-0.09,0.99997,0.00073,-0.00007,-0.00033,0.003,0.0000
2024,6,20,11:51:53.541,-1.360,223,-0.2,-0.1,0.0,-1.01,-0.07,-0.08,0.99997,0.00073,-0.00007,-0.00033,0.003,0.0000
2024,6,20,11:51:53.541,-1.358,225,-0.1,0.0,0.0,-1.02,-0.08,-0.09,0.99997,0.00073,-0.00007,-0.00033,0.003,0.0000
2024,6,20,11:51:53.663,-1.356,227,-0.1,0.0,0.0,-0.96,-0.08,-0.06,0.99997,0.00073,-0.00007,-0.00033,0.003,0.0000
2024,6,20,11:51:53.663,-1.354,229,0.0,0.0,0.1,-1.00,-0.08,-0.06,0.99997,0.00073,-0.00007,-0.00033,0.003,0.0000
2024,6,20,11:51:53.663,-1.352,231,0.0,0.0,0.1,-0.99,-0.07,-0.08,0.99997,0.00073,-0.00007,-0.00033,0.003,0.0000
2024,6,20,11:51:53.663,-1.350,233,0.0,0.0,0.0,-0.99,-0.08,-0.08,0.99997,0.00073,-0.00007,-0.00033,0.003,0.0000
2024,6,20,11:51:53.663,-1.348,235,0.2,0.0,0.0,-0.98,-0.08,-0.08,0.99997,0.00073,-0.00007,-0.00033,0.003,0.0000
2024,6,20,11:51:53.663,-1.346,237,0.3,-0.1,0.0,-0.99,-0.08,-0.08,0.99997,0.00073,-0.00007,-0.00033,0.003,0.0000
2024,6,20,11:51:53.663,-1.344,239,0.7,-0.2,0.1,-0.99,-0.07,-0.08,0.99997,0.00077,-0.00007,-0.00033,0.003,0.0000
2024,6,20,11:51:53.663,-1.342,241,0.8,-0.1,0.1,-0.98,-0.08,-0.08,0.99997,0.00077,-0.00007,-0.00033,0.003,0.0000
2024,6,20,11:51:53.663,-1.340,243,0.3,0.0,0.0,-0.99,-0.08,-0.08,0.99997,0.00077,-0.00007,-0.00033,0.003,0.0000
2024,6,20,11:51:53.719,-1.338,245,0.4,0.1,0.0,-0.99,-0.08,-0.08,0.99997,0.00077,-0.00007,-0.00033,0.003,0.0000
2024,6,20,11:51:53.719,-1.336,247,0.9,-0.3,0.0,-0.99,-0.07,-0.07,0.99997,0.00080,-0.00007,-0.00033,0.003,0.0000
2024,6,20,11:51:53.719,-1.334,249,0.8,-0.2,0.2,-0.99,-0.07,-0.07,0.99997,0.00080,-0.00007,-0.00033,0.003,0.0000
2024,6,20,11:51:53.719,-1.332,1,0.9,-0.3,0.2,-0.99,-0.07,-0.07,0.99997,0.00083,-0.00010,-0.00033,0.003,0.0000
2024,6,20,11:51:53.719,-1.330,3,0.3,0.2,-0.1,-0.99,-0.09,-0.08,0.99997,0.00083,-0.00007,-0.00033,0.003,0.0000
2024,6,20,11:51:53.719,-1.328,5,0.4,0.0,0.0,-1.00,-0.08,-0.09,0.99997,0.00083,-0.00007,-0.00033,0.003,0.0000
2024,6,20,11:51:53.719,-1.326,7,0.9,-0.2,0.1,-0.98,-0.08,-0.07,0.99997,0.00087,-0.00007,-0.00033,0.003,0.0000
2024,6,20,11:51:53.719,-1.324,9,0.8,-0.1,0.0,-0.99,-0.06,-0.07,0.99997,0.00087,-0.00010,-0.00033,0.003,0.0000
2024,6,20,11:51:53.719,-1.322,11,0.4,0.1,0.1,-0.99,-0.09,-0.08,0.99997,0.00087,-0.00010,-0.00033,0.003,0.0000
2024,6,20,11:51:53.780,-1.320,13,0.4,0.0,0.2,-0.99,-0.08,-0.08,0.99997,0.00090,-0.00010,-0.00033,0.003,0.0000
2024,6,20,11:51:53.780,-1.318,15,0.4,0.0,0.2,-0.99,-0.08,-0.07,0.99997,0.00090,-0.00010,-0.00030,0.003,0.0000
2024,6,20,11:51:53.781,-1.316,17,0.4,0.0,0.1,-0.98,-0.08,-0.06,0.99997,0.00090,-0.00010,-0.00030,0.003,0.0000
2024,6,20,11:51:53.781,-1.314,19,0.3,0.0,0.0,-0.98,-0.08,-0.06,0.99997,0.00090,-0.00010,-0.00030,0.003,0.0000
2024,6,20,11:51:53.781,-1.312,21,0.3,0.0,0.3,-0.99,-0.08,-0.08,0.99997,0.00090,-0.00010,-0.00030,0.003,0.0000
2024,6,20,11:51:53.781,-1.310,23,0.2,-0.1,0.1,-0.99,-0.08,-0.07,0.99997,0.00093,-0.00010,-0.00030,0.003,0.0000
2024,6,20,11:51:53.781,-1.308,25,0.2,-0.1,0.0,-0.99,-0.08,-0.07,0.99997,0.00093,-0.00010,-0.00030,0.003,0.0000
2024,6,20,11:51:53.781,-1.306,27,0.0,0.0,0.1,-0.99,-0.08,-0.07,0.99997,0.00093,-0.00010,-0.00030,0.003,0.0000
2024,6,20,11:51:53.781,-1.304,29,0.0,0.0,0.0,-0.98,-0.09,-0.07,0.99997,0.00093,-0.00010,-0.00030,0.003,0.0000
2024,6,20,11:51:53.840,-1.302,31,0.2,0.0,0.1,-0.99,-0.08,-0.07,0.99997,0.00093,-0.00010,-0.00030,0.003,0.0000
2024,6,20,11:51:53.840,-1.300,33,0.2,-0.1,0.1,-0.99,-0.08,-0.07,0.99997,0.00093,-0.00010,-0.00030,0.003,0.0000
2024,6,20,11:51:53.840,-1.298,35,0.0,0.1,0.0,-0.99,-0.08,-0.07,0.99997,0.00093,-0.00010,-0.00030,0.003,0.0000
2024,6,20,11:51:53.840,-1.296,37,0.0,0.0,0.1,-0.98,-0.08,-0.07,0.99997,0.00093,-0.00010,-0.00030,0.003,0.0000
2024,6,20,11:51:53.840,-1.294,39,0.0,0.0,0.1,-0.97,-0.08,-0.06,0.99997,0.00093,-0.00010,-0.00030,0.003,0.0000
2024,6,20,11:51:53.840,-1.292,41,0.0,0.1,0.2,-0.99,-0.07,-0.06,0.99997,0.00093,-0.00010,-0.00030,0.003,0.0000
2024,6,20,11:51:53.840,-1.290,43,-0.2,0.0,0.1,-0.99,-0.07,-0.06,0.99997,0.00093,-0.00010,-0.00030,0.003,0.0000
2024,6,20,11:51:53.840,-1.288,45,-0.1,0.0,0.1,-0.99,-0.09,-0.06,0.99997,0.00093,-0.00010,-0.00027,0.003,0.0000
2024,6,20,11:51:53.840,-1.286,47,-0.1,0.0,0.1,-0.99,-0.08,-0.06,0.99997,0.00093,-0.00010,-0.00027,0.003,0.0000
2024,6,20,11:51:53.901,-1.284,49,-0.2,0.0,0.0,-0.99,-0.08,-0.06,0.99997,0.00093,-0.00010,-0.00027,0.003,0.0000
2024,6,20,11:51:53.901,-1.282,51,-0.4,0.0,0.1,-0.98,-0.07,-0.06,0.99997,0.00090,-0.00010,-0.00027,0.003,0.0000
2024,6,20,11:51:53.901,-1.280,53,-0.3,0.0,0.0,-0.98,-0.08,-0.06,0.99997,0.00090,-0.00010,-0.00027,0.003,0.0000
2024,6,20,11:51:53.901,-1.278,55,-0.4,0.0,0.1,-0.99,-0.08,-0.06,0.99997,0.00090,-0.00010,-0.00027,0.003,0.0000
2024,6,20,11:51:53.901,-1.276,57,-0.5,0.0,0.1,-0.99,-0.08,-0.06,0.99997,0.00090,-0.00010,-0.00027,0.003,0.0000
2024,6,20,11:51:53.901,-1.274,59,-0.6,0.0,0.1,-0.99,-0.08,-0.06,0.99997,0.00087,-0.00010,-0.00027,0.003,0.0000
2024,6,20,11:51:53.901,-1.272,61,-0.7,0.0,0.1,-0.99,-0.08,-0.06,0.99997,0.00087,-0.00010,-0.00027,0.003,0.0000
2024,6,20,11:51:53.901,-1.270,63,-0.6,0.0,0.0,-0.98,-0.08,-0.06,0.99997,0.00087,-0.00010,-0.00027,0.003,0.0000
2024,6,20,11:51:53.901,-1.268,65,-0.9,0.0,0.1,-0.99,-0.08,-0.06,0.99997,0.00083,-0.00010,-0.00027,0.003,0.0000
2024,6,20,11:51:54.050,-1.266,67,-0.8,0.1,0.1,-0.99,-0.08,-0.06,0.99997,0.00083,-0.00010,-0.00027,0.003,0.0000
2024,6,20,11:51:54.050,-1.264,69,-1.1,0.1,0.0,-0.99,-0.07,-0.07,0.99997,0.00080,-0.00010,-0.00027,0.003,0.0000
2024,6,20,11:51:54.050,-1.262,71,-1.1,0.1,0.1,-0.99,-0.07,-0.07,0.99997,0.00077,-0.00010,-0.00027,0.003,0.0000
2024,6,20,11:51:54.050,-1.260,73,-0.9,0.1,0.1,-0.98,-0.07,-0.06,1.00000,0.00000,0.00000,0.00000,0.003,0.0000
2024,6,20,11:51:54.050,-1.258,75,-0.9,0.0,0.2,-0.99,-0.08,-0.07,1.00000,-0.00003,0.00000,0.00000,0.003,0.0000
2024,6,20,11:51:54.050,-1.256,77,-1.2,0.1,0.0,-0.99,-0.07,-0.07,1.00000,-0.00003,0.00000,0.00000,0.003,0.0000
2024,6,20,11:51:54.050,-1.254,79,-1.1,0.1,0.0,-0.99,-0.08,-0.07,1.00000,-0.00007,0.00000,0.00000,0.003,0.0000
2024,6,20,11:51:54.050,-1.252,81,-1.0,0.0,0.1,-0.99,-0.07,-0.07,1.00000,-0.00007,0.00000,0.00000,0.003,0.0000
2024,6,20,11:51:54.050,-1.250,83,-0.9,0.0,0.0,-0.98,-0.08,-0.07,1.00000,-0.00010,0.00000,0.00000,0.003,0.0000
2024,6,20,11:51:54.112,-1.248,85,-1.0,0.1,0.1,-0.99,-0.07,-0.07,1.00000,-0.00010,0.00000,0.00000,0.003,0.0000
2024,6,20,11:51:54.112,-1.246,87,-0.9,0.1,0.0,-0.99,-0.06,-0.08,1.00000,-0.00013,0.00000,0.00000,0.003,0.0000
2024,6,20,11:51:54.112,-1.244,89,-0.9,0.2,0.1,-0.98,-0.07,-0.07,1.00000,-0.00013,0.00000,0.00000,0.003,0.0000
2024,6,20,11:51:54.112,-1.242,91,-0.8,0.1,0.1,-0.98,-0.07,-0.06,1.00000,-0.00017,0.00000,0.00000,0.003,0.0000
2024,6,20,11:51:54.112,-1.240,93,-0.6,0.1,0.0,-0.99,-0.08,-0.09,1.00000,-0.00017,0.00000,0.00000,0.003,0.0000
2024,6,20,11:51:54.112,-1.238,95,-0.6,0.3,0.0,-0.96,-0.07,-0.08,1.00000,-0.00020,0.00000,0.00000,0.003,0.0000
2024,6,20,11:51:54.112,-1.236,97,-0.4,0.3,0.1,-1.02,-0.07,-0.07,1.00000,-0.00020,0.00003,0.00000,0.003,0.0000
2024,6,20,11:51:54.112,-1.234,99,-0.6,0.3,0.0,-0.97,-0.08,-0.08,1.00000,-0.00020,0.00003,0.00000,0.003,0.0000
2024,6,20,11:51:54.112,-1.232,101,-0.4,0.3,0.0,-0.97,-0.06,-0.06,1.00000,-0.00020,0.00003,0.00000,0.003,0.0000
2024,6,20,11:51:54.170,-1.230,103,-0.2,0.1,0.0,-1.02,-0.07,-0.09,1.00000,-0.00020,0.00003,0.00000,0.003,0.0000
2024,6,20,11:51:54.170,-1.228,105,-0.1,0.2,0.0,-0.98,-0.07,-0.09,1.00000,-0.00023,0.00003,0.00000,0.003,0.0000
2024,6,20,11:51:54.170,-1.226,107,-0.2,0.3,0.0,-0.98,-0.06,-0.06,1.00000,-0.00023,0.00003,0.00000,0.003,0.0000
2024,6,20,11:51:54.170,-1.224,109,-0.2,0.3,0.0,-1.01,-0.08,-0.07,1.00000,-0.00023,0.00003,0.00000,0.003,0.0000
2024,6,20,11:51:54.170,-1.222,111,0.0,0.3,0.1,-0.95,-0.07,-0.08,1.00000,-0.00023,0.00007,0.00000,0.003,0.0000
2024,6,20,11:51:54.170,-1.220,113,0.0,0.4,0.1,-1.01,-0.07,-0.07,1.00000,-0.00023,0.00007,0.00000,0.003,0.0000
2024,6,20,11:51:54.170,-1.218,115,0.0,0.1,0.0,-1.02,-0.08,-0.09,1.00000,-0.00023,0.00007,0.00000,0.003,0.0000
2024,6,20,11:51:54.170,-1.216,117,0.1,0.1,0.0,-0.96,-0.06,-0.07,1.00000,-0.00023,0.00007,0.00000,0.003,0.0000
2024,6,20,11:51:54.170,-1.214,119,0.0,0.3,0.0,-1.00,-0.07,-0.08,1.00000,-0.00023,0.00007,0.00000,0.003,0.0000
2024,6,20,11:51:54.231,-1.212,121,0.0,0.3,0.0,-0.99,-0.07,-0.09,1.00000,-0.00023,0.00007,0.00000,0.003,0.0000
2024,6,20,11:51:54.231,-1.210,123,0.2,0.1,0.0,-0.99,-0.06,-0.08,1.00000,-0.00023,0.00010,0.00000,0.003,0.0000
2024,6,20,11:51:54.231,-1.208,125,0.0,0.3,0.0,-0.98,-0.07,-0.08,1.00000,-0.00020,0.00010,0.00000,0.003,0.0000
2024,6,20,11:51:54.231,-1.206,127,-0.1,0.3,0.0,-0.99,-0.07,-0.08,1.00000,-0.00023,0.00010,0.00000,0.003,0.0000
2024,6,20,11:51:54.231,-1.204,129,-0.1,0.3,0.0,-0.99,-0.07,-0.08,1.00000,-0.00023,0.00010,0.00000,0.003,0.0000
2024,6,20,11:51:54.231,-1.202,131,-0.2,0.4,-0.1,-0.99,-0.07,-0.08,1.00000,-0.00023,0.00010,0.00000,0.003,0.0000
2024,6,20,11:51:54.231,-1.200,133,0.0,0.1,0.0,-0.99,-0.07,-0.08,1.00000,-0.00023,0.00010,0.00000,0.003,0.0000
2024,6,20,11:51:54.231,-1.198,135,-0.2,0.3,0.0,-0.99,-0.07,-0.09,1.00000,-0.00023,0.00013,0.00000,0.003,0.0000
2024,6,20,11:51:54.231,-1.196,137,0.0,0.3,0.0,-0.99,-0.07,-0.08,1.00000,-0.00023,0.00013,0.00000,0.003,0.0000
2024,6,20,11:51:54.350,-1.194,139,-0.1,0.3,0.0,-0.99,-0.08,-0.08,1.00000,-0.00023,0.00013,0.00000,0.003,0.0000
2024,6,20,11:51:54.350,-1.192,141,-0.2,0.2,0.0,-0.99,-0.08,-0.09,1.00000,-0.00023,0.00013,0.00000,0.003,0.0000
2024,6,20,11:51:54.350,-1.190,143,-0.2,0.3,0.1,-1.00,-0.07,-0.09,1.00000,-0.00023,0.00013,0.00000,0.003,0.0000
2024,6,20,11:51:54.350,-1.188,145,-0.1,0.1,0.0,-0.99,-0.06,-0.08,1.00000,-0.00023,0.00013,0.00000,0.003,0.0000
2024,6,20,11:51:54.350,-1.186,147,-0.2,0.3,0.0,-0.98,-0.07,-0.09,1.00000,-0.00023,0.00017,0.00000,0.003,0.0000
2024,6,20,11:51:54.350,-1.184,149,-0.2,0.2,0.0,-0.98,-0.07,-0.09,1.00000,-0.00027,0.00017,0.00000,0.003,0.0000
2024,6,20,11:51:54.350,-1.182,151,-0.2,0.3,-0.1,-0.99,-0.07,-0.09,1.00000,-0.00027,0.00017,0.00000,0.003,0.0000
2024,6,20,11:51:54.350,-1.180,153,-0.2,0.2,0.1,-0.99,-0.07,-0.09,1.00000,-0.00027,0.00017,0.00000,0.003,0.0000
2024,6,20,11:51:54.350,-1.178,155,-0.3,0.4,0.0,-0.99,-0.07,-0.09,1.00000,-0.00027,0.00017,0.00000,0.003,0.0000
2024,6,20,11:51:54.410,-1.176,157,-0.1,0.0,0.0,-0.98,-0.07,-0.09,1.00000,-0.00027,0.00017,0.00000,0.003,0.0000
2024,6,20,11:51:54.410,-1.174,159,-0.1,0.2,-0.1,-0.98,-0.06,-0.08,1.00000,-0.00027,0.00017,0.00000,0.003,0.0000
2024,6,20,11:51:54.410,-1.172,161,0.0,0.1,0.0,-0.99,-0.07,-0.09,1.00000,-0.00027,0.00017,0.00000,0.003,0.0000
2024,6,20,11:51:54.410,-1.170,163,-0.2,0.1,0.0,-0.98,-0.07,-0.09,1.00000,-0.00027,0.00020,0.00000,0.003,0.0000
2024,6,20,11:51:54.410,-1.168,165,-0.1,0.2,0.0,-0.98,-0.07,-0.09,1.00000,-0.00027,0.00020,0.00000,0.003,0.0000
2024,6,20,11:51:54.410,-1.166,167,-0.1,0.0,-0.1,-0.99,-0.08,-0.09,1.00000,-0.00030,0.00020,0.00000,0.003,0.0000
2024,6,20,11:51:54.410,-1.164,169,-0.2,0.1,-0.1,-0.98,-0.07,-0.09,1.00000,-0.00030,0.00020,0.00000,0.003,0.0000
2024,6,20,11:51:54.410,-1.162,171,-0.3,0.2,-0.1,-0.99,-0.07,-0.10,1.00000,-0.00030,0.00020,0.00000,0.003,0.0000
2024,6,20,11:51:54.410,-1.160,173,-0.4,0.2,-0.1,-0.98,-0.08,-0.09,1.00000,-0.00030,0.00020,0.00000,0.003,0.0000
2024,6,20,11:51:54.472,-1.158,175,-0.2,0.0,-0.1,-0.98,-0.07,-0.09,1.00000,-0.00030,0.00020,0.00000,0.003,0.0000
2024,6,20,11:51:54.472,-1.156,177,-0.3,0.1,-0.1,-0.99,-0.07,-0.09,1.00000,-0.00030,0.00020,0.00000,0.003,0.0000
2024,6,20,11:51:54.472,-1.154,179,-0.5,0.2,-0.1,-0.98,-0.07,-0.09,1.00000,-0.00033,0.00020,0.00000,0.003,0.0000
2024,6,20,11:51:54.472,-1.152,181,-0.4,0.1,-0.1,-0.99,-0.08,-0.09,1.00000,-0.00033,0.00020,0.00000,0.003,0.0000
2024,6,20,11:51:54.472,-1.150,183,-0.5,0.1,-0.1,-0.99,-0.07,-0.10,0.99997,-0.00033,0.00020,0.00000,0.003,0.0000
2024,6,20,11:51:54.472,-1.148,185,-0.6,0.1,-0.2,-1.00,-0.07,-0.09,0.99997,-0.00033,0.00023,0.00000,0.003,0.0000
2024,6,20,11:51:54.472,-1.146,187,-0.5,0.1,-0.1,-0.99,-0.06,-0.10,0.99997,-0.00037,0.00023,0.00000,0.003,0.0000
2024,6,20,11:51:54.472,-1.144,189,-0.6,0.1,-0.1,-0.99,-0.06,-0.10,0.99997,-0.00037,0.00023,0.00000,0.003,0.0000
2024,6,20,11:51:54.472,-1.142,191,-0.5,0.1,-0.1,-0.99,-0.08,-0.10,0.99997,-0.00037,0.00023,0.00000,0.003,0.0000
2024,6,20,11:51:54.532,-1.140,193,-0.6,0.0,-0.1,-0.99,-0.08,-0.09,0.99997,-0.00040,0.00023,0.00000,0.003,0.0000
2024,6,20,11:51:54.532,-1.138,195,-0.5,0.0,0.0,-0.98,-0.07,-0.10,0.99997,-0.00040,0.00023,0.00000,0.003,0.0000
2024,6,20,11:51:54.532,-1.136,197,-0.6,0.0,-0.1,-0.98,-0.07,-0.10,0.99997,-0.00040,0.00023,0.00000,0.003,0.0000
2024,6,20,11:51:54.532,-1.134,199,-0.6,0.0,-0.1,-0.99,-0.06,-0.10,0.99997,-0.00043,0.00023,0.00000,0.003,0.0000
2024,6,20,11:51:54.532,-1.132,201,-0.4,0.0,-0.1,-0.99,-0.08,-0.10,0.99997,-0.00043,0.00023,0.00000,0.003,0.0000
2024,6,20,11:51:54.532,-1.130,203,-0.4,0.0,-0.1,-0.99,-0.07,-0.10,0.99997,-0.00043,0.00023,0.00000,0.003,0.0000
2024,6,20,11:51:54.532,-1.128,205,-0.5,0.1,-0.1,-0.99,-0.07,-0.10,0.99997,-0.00043,0.00023,0.00000,0.003,0.0000
2024,6,20,11:51:54.532,-1.126,207,-0.2,-0.1,-0.1,-0.99,-0.07,-0.09,0.99997,-0.00047,0.00023,0.00000,0.003,0.0000
2024,6,20,11:51:54.532,-1.124,209,-0.1,-0.1,-0.1,-0.99,-0.06,-0.09,0.99997,-0.00047,0.00023,0.00000,0.003,0.0000
2024,6,20,11:51:54.590,-1.122,211,-0.2,0.0,-0.2,-1.00,-0.06,-0.10,0.99997,-0.00047,0.00023,0.00000,0.003,0.0000
2024,6,20,11:51:54.590,-1.120,213,-0.1,0.1,0.0,-0.99,-0.07,-0.10,0.99997,-0.00047,0.00023,0.00000,0.003,0.0000
2024,6,20,11:51:54.590,-1.118,215,0.0,0.0,-0.1,-0.99,-0.07,-0.10,0.99997,-0.00047,0.00023,0.00000,0.003,0.0000
2024,6,20,11:51:54.590,-1.116,217,-0.1,0.0,-0.1,-0.98,-0.07,-0.10,0.99997,-0.00047,0.00023,0.00000,0.003,0.0000
2024,6,20,11:51:54.591,-1.114,219,0.0,0.0,-0.1,-0.98,-0.07,-0.10,0.99997,-0.00047,0.00023,-0.00003,0.003,0.0000
2024,6,20,11:51:54.591,-1.112,221,0.2,0.1,-0.1,-0.98,-0.07,-0.10,0.99997,-0.00047,0.00023,-0.00003,0.003,0.0000
2024,6,20,11:51:54.591,-1.110,223,0.2,0.0,-0.1,-0.99,-0.08,-0.10,0.99997,-0.00047,0.00023,-0.00003,0.003,0.0000
2024,6,20,11:51:54.591,-1.108,225,0.4,0.0,-0.1,-0.99,-0.07,-0.10,0.99997,-0.00043,0.00023,-0.00003,0.003,0.0000
2024,6,20,11:51:54.591,-1.106,227,0.5,-0.1,0.0,-0.99,-0.07,-0.10,0.99997,-0.00043,0.00023,-0.00003,0.003,0.0000
2024,6,20,11:51:54.709,-1.104,229,0.4,0.0,-0.2,-0.99,-0.06,-0.09,0.99997,-0.00043,0.00023,-0.00003,0.003,0.0000
2024,6,20,11:51:54.709,-1.102,231,0.6,0.0,-0.1,-0.99,-0.06,-0.10,0.99997,-0.00043,0.00023,-0.00003,0.003,0.0000
2024,6,20,11:51:54.709,-1.100,233,0.5,0.0,-0.1,-0.99,-0.08,-0.10,0.99997,-0.00040,0.00023,-0.00003,0.003,0.0000
2024,6,20,11:51:54.709,-1.098,235,0.6,0.0,0.0,-0.99,-0.08,-0.10,0.99997,-0.00040,0.00023,-0.00003,0.003,0.0000
2024,6,20,11:51:54.709,-1.096,237,0.7,0.0,-0.1,-0.99,-0.07,-0.09,0.99997,-0.00040,0.00023,-0.00003,0.003,0.0000
2024,6,20,11:51:54.709,-1.094,239,0.7,0.0,-0.1,-1.00,-0.07,-0.09,0.99997,-0.00037,0.00023,-0.00003,0.003,0.0000
2024,6,20,11:51:54.709,-1.092,241,0.7,0.0,-0.1,-0.99,-0.07,-0.10,0.99997,-0.00037,0.00023,-0.00003,0.003,0.0000
2024,6,20,11:51:54.709,-1.090,243,0.7,0.0,-0.1,-1.00,-0.07,-0.09,0.99997,-0.00033,0.00023,-0.00003,0.003,0.0000
2024,6,20,11:51:54.709,-1.088,245,0.8,0.0,0.0,-0.99,-0.07,-0.09,0.99997,-0.00033,0.00023,-0.00003,0.003,0.0000
2024,6,20,11:51:54.770,-1.086,247,0.7,0.0,0.0,-0.98,-0.07,-0.09,0.99997,-0.00033,0.00023,-0.00003,0.003,0.0000
2024,6,20,11:51:54.770,-1.084,249,0.9,-0.1,-0.1,-0.99,-0.08,-0.09,0.99997,-0.00030,0.00023,-0.00003,0.003,0.0000
2024,6,20,11:51:54.770,-1.082,1,0.9,0.0,-0.2,-0.99,-0.07,-0.08,0.99997,-0.00030,0.00023,-0.00007,0.003,0.0000
2024,6,20,11:51:54.770,-1.080,3,0.9,0.0,-0.1,-0.99,-0.07,-0.09,0.99997,-0.00027,0.00020,-0.00007,0.003,0.0000
2024,6,20,11:51:54.770,-1.078,5,1.1,-0.1,0.0,-0.98,-0.07,-0.09,0.99997,-0.00027,0.00020,-0.00007,0.003,0.0000
2024,6,20,11:51:54.770,-1.076,7,0.9,0.0,-0.1,-1.00,-0.08,-0.09,0.99997,-0.00023,0.00020,-0.00007,0.003,0.0000
2024,6,20,11:51:54.770,-1.074,9,0.9,0.0,-0.1,-0.98,-0.07,-0.09,0.99997,-0.00023,0.00020,-0.00007,0.003,0.0000
2024,6,20,11:51:54.770,-1.072,11,0.9,0.0,0.0,-0.99,-0.08,-0.09,0.99997,-0.00020,0.00020,-0.00007,0.003,0.0000
2024,6,20,11:51:54.770,-1.070,13,1.1,0.0,-0.1,-0.99,-0.08,-0.09,0.99997,-0.00020,0.00020,-0.00007,0.003,0.0000
2024,6,20,11:51:54.831,-1.068,15,1.1,0.0,-0.1,-0.99,-0.08,-0.09,0.99997,-0.00017,0.00020,-0.00007,0.003,0.0000
2024,6,20,11:51:54.831,-1.066,17,1.0,0.0,-0.1,-0.99,-0.08,-0.09,1.00000,-0.00013,0.00020,-0.00007,0.003,0.0000
2024,6,20,11:51:54.831,-1.064,19,1.0,0.0,-0.2,-0.99,-0.08,-0.09,1.00000,-0.00013,0.00020,-0.00007,0.003,0.0000
2024,6,20,11:51:54.831,-1.062,21,1.1,-0.1,-0.1,-0.98,-0.08,-0.09,1.00000,-0.00010,0.00020,-0.00007,0.003,0.0000
2024,6,20,11:51:54.831,-1.060,23,1.0,0.0,-0.1,-0.98,-0.08,-0.08,1.00000,-0.00010,0.00020,-0.00007,0.003,0.0000
2024,6,20,11:51:54.831,-1.058,25,0.9,0.0,-0.1,-0.98,-0.08,-0.08,1.00000,-0.00007,0.00020,-0.00007,0.003,0.0000
2024,6,20,11:51:54.831,-1.056,27,1.0,0.0,-0.1,-0.99,-0.08,-0.09,1.00000,-0.00007,0.00020,-0.00010,0.003,0.0000
2024,6,20,11:51:54.831,-1.054,29,0.9,0.0,-0.1,-0.98,-0.09,-0.08,1.00000,-0.00003,0.00020,-0.00010,0.003,0.0000
2024,6,20,11:51:54.831,-1.052,31,0.9,0.0,-0.1,-0.98,-0.09,-0.08,1.00000,-0.00003,0.00020,-0.00010,0.003,0.0000
2024,6,20,11:51:54.892,-1.050,33,0.7,0.0,-0.2,-0.99,-0.08,-0.08,1.00000,0.00000,0.00020,-0.00010,0.003,0.0000
2024,6,20,11:51:54.892,-1.048,35,0.7,0.0,-0.2,-0.98,-0.08,-0.08,1.00000,0.00000,0.00020,-0.00010,0.003,0.0000
2024,6,20,11:51:54.892,-1.046,37,0.8,0.0,-0.1,-0.99,-0.09,-0.08,1.00000,0.00000,0.00020,-0.00010,0.003,0.0000
2024,6,20,11:51:54.892,-1.044,39,0.7,0.0,-0.1,-0.98,-0.09,-0.08,1.00000,0.00000,0.00020,-0.00010,0.003,0.0000
2024,6,20,11:51:54.892,-1.042,41,0.5,0.0,-0.2,-0.99,-0.09,-0.08,1.00000,0.00000,0.00020,-0.00010,0.003,0.0000
2024,6,20,11:51:54.892,-1.040,43,0.5,0.0,-0.3,-0.98,-0.08,-0.08,1.00000,0.00003,0.00020,-0.00010,0.003,0.0000
2024,6,20,11:51:54.892,-1.038,45,0.4,-0.1,-0.2,-0.98,-0.08,-0.08,1.00000,0.00003,0.00020,-0.00013,0.003,0.0000
2024,6,20,11:51:54.892,-1.036,47,0.3,0.0,-0.1,-0.99,-0.08,-0.08,1.00000,0.00003,0.00020,-0.00013,0.003,0.0000
2024,6,20,11:51:54.892,-1.034,49,0.2,0.0,-0.1,-0.99,-0.08,-0.08,1.00000,0.00003,0.00020,-0.00013,0.003,0.0000
2024,6,20,11:51:54.952,-1.032,51,0.3,-0.1,-0.2,-0.99,-0.08,-0.09,1.00000,0.00003,0.00020,-0.00013,0.003,0.0000
2024,6,20,11:51:54.952,-1.030,53,0.2,-0.1,-0.1,-0.99,-0.08,-0.08,1.00000,0.00003,0.00020,-0.00013,0.003,0.0000
2024,6,20,11:51:54.952,-1.028,55,0.3,0.0,-0.1,-0.99,-0.08,-0.09,1.00000,0.00007,0.00020,-0.00013,0.003,0.0000
2024,6,20,11:51:54.952,-1.026,57,0.2,0.0,-0.2,-0.98,-0.09,-0.08,1.00000,0.00007,0.00020,-0.00013,0.003,0.0000
2024,6,20,11:51:54.952,-1.024,59,0.1,0.0,0.0,-0.98,-0.08,-0.08,1.00000,0.00007,0.00020,-0.00013,0.003,0.0000
2024,6,20,11:51:54.952,-1.022,61,0.0,0.0,-0.2,-0.98,-0.08,-0.08,1.00000,0.00007,0.00020,-0.00013,0.003,0.0000
2024,6,20,11:51:54.952,-1.020,63,0.0,0.0,-0.1,-0.99,-0.09,-0.09,1.00000,0.00007,0.00020,-0.00013,0.003,0.0000
2024,6,20,11:51:54.952,-1.018,65,0.0,0.0,-0.1,-0.98,-0.08,-0.08,1.00000,0.00007,0.00020,-0.00013,0.003,0.0000
2024,6,20,11:51:54.952,-1.016,67,0.0,0.0,-0.1,-0.99,-0.09,-0.09,1.00000,0.00007,0.00020,-0.00013,0.003,0.0000
2024,6,20,11:51:55.071,-1.014,69,0.0,0.0,-0.1,-0.99,-0.09,-0.09,1.00000,0.00007,0.00020,-0.00017,0.003,0.0000
2024,6,20,11:51:55.071,-1.012,71,0.2,-0.2,-0.1,-0.98,-0.09,-0.08,1.00000,0.00007,0.00020,-0.00017,0.003,0.0000
2024,6,20,11:51:55.071,-1.010,73,0.0,0.0,-0.1,-0.99,-0.09,-0.09,1.00000,0.00007,0.00020,-0.00017,0.003,0.0000
2024,6,20,11:51:55.071,-1.008,75,0.1,-0.1,0.0,-0.99,-0.07,-0.09,1.00000,0.00007,0.00017,-0.00017,0.003,0.0000
2024,6,20,11:51:55.071,-1.006,77,0.2,-0.2,-0.1,-0.99,-0.08,-0.09,1.00000,0.00007,0.00017,-0.00017,0.003,0.0000
2024,6,20,11:51:55.072,-1.004,79,0.2,0.0,-0.1,-0.99,-0.09,-0.08,1.00000,0.00007,0.00017,-0.00017,0.003,0.0000
2024,6,20,11:51:55.072,-1.002,81,0.3,-0.2,0.0,-0.99,-0.09,-0.08,1.00000,0.00010,0.00017,-0.00017,0.003,0.0000
2024,6,20,11:51:55.072,-1.000,83,0.2,0.0,0.0,-0.99,-0.09,-0.09,1.00000,0.00010,0.00017,-0.00017,0.003,0.0000
2024,6,20,11:51:55.072,-0.998,85,0.2,-0.1,-0.1,-0.99,-0.09,-0.09,1.00000,0.00010,0.00017,-0.00017,0.003,0.0000
2024,6,20,11:51:55.160,-0.996,87,0.2,0.1,0.0,-0.98,-0.09,-0.09,1.00000,0.00010,0.00017,-0.00017,0.003,0.0000
2024,6,20,11:51:55.160,-0.994,89,0.3,0.0,0.0,-0.99,-0.09,-0.08,1.00000,0.00010,0.00017,-0.00017,0.003,0.0000
2024,6,20,11:51:55.160,-0.992,91,0.4,-0.1,-0.1,-0.99,-0.08,-0.09,1.00000,0.00010,0.00017,-0.00017,0.003,0.0000
2024,6,20,11:51:55.160,-0.990,93,0.2,0.0,0.0,-0.99,-0.09,-0.08,1.00000,0.00013,0.00017,-0.00017,0.003,0.0000
2024,6,20,11:51:55.160,-0.988,95,0.3,0.0,-0.1,-0.98,-0.09,-0.09,1.00000,0.00013,0.00017,-0.00017,0.003,0.0000
2024,6,20,11:51:55.160,-0.986,97,0.4,-0.2,0.0,-0.98,-0.09,-0.09,1.00000,0.00013,0.00017,-0.00017,0.003,0.0000
2024,6,20,11:51:55.160,-0.984,99,0.2,-0.1,-0.1,-0.98,-0.09,-0.09,1.00000,0.00013,0.00017,-0.00017,0.003,0.0000
2024,6,20,11:51:55.160,-0.982,101,0.3,0.0,-0.1,-0.98,-0.09,-0.09,1.00000,0.00013,0.00017,-0.00017,0.003,0.0000
2024,6,20,11:51:55.160,-0.980,103,0.2,-0.1,-0.1,-0.99,-0.10,-0.09,1.00000,0.00017,0.00017,-0.00017,0.003,0.0000
2024,6,20,11:51:55.219,-0.978,105,0.2,0.0,-0.1,-0.99,-0.09,-0.09,1.00000,0.00017,0.00017,-0.00017,0.003,0.0000
2024,6,20,11:51:55.220,-0.976,107,0.2,0.0,0.0,-0.99,-0.09,-0.08,1.00000,0.00017,0.00017,-0.00017,0.003,0.0000
2024,6,20,11:51:55.220,-0.974,109,0.2,-0.2,0.0,-0.99,-0.09,-0.09,1.00000,0.00017,0.00013,-0.00017,0.003,0.0000
2024,6,20,11:51:55.220,-0.972,111,0.0,0.0,-0.1,-0.98,-0.09,-0.09,1.00000,0.00017,0.00013,-0.00017,0.003,0.0000
2024,6,20,11:51:55.220,-0.970,113,0.2,-0.2,0.0,-0.99,-0.09,-0.09,1.00000,0.00017,0.00013,-0.00017,0.003,0.0000
2024,6,20,11:51:55.220,-0.968,115,0.1,-0.1,0.0,-0.99,-0.09,-0.09,1.00000,0.00017,0.00013,-0.00017,0.003,0.0000
2024,6,20,11:51:55.220,-0.966,117,0.0,0.0,0.1,-0.98,-0.10,-0.08,1.00000,0.00017,0.00013,-0.00017,0.003,0.0000
2024,6,20,11:51:55.220,-0.964,119,0.0,0.0,0.1,-0.99,-0.09,-0.09,1.00000,0.00017,0.00013,-0.00017,0.003,0.0000
2024,6,20,11:51:55.220,-0.962,121,0.2,-0.2,0.1,-0.99,-0.09,-0.09,1.00000,0.00017,0.00013,-0.00017,0.003,0.0000
2024,6,20,11:51:55.280,-0.960,123,0.0,-0.2,0.0,-0.98,-0.09,-0.09,1.00000,0.00017,0.00013,-0.00017,0.003,0.0000
2024,6,20,11:51:55.280,-0.958,125,0.0,-0.3,0.0,-0.99,-0.08,-0.09,1.00000,0.00017,0.00013,-0.00017,0.003,0.0000
2024,6,20,11:51:55.280,-0.956,127,0.2,-0.3,0.0,-0.99,-0.09,-0.08,1.00000,0.00017,0.00013,-0.00017,0.003,0.0000
2024,6,20,11:51:55.280,-0.954,129,0.0,0.0,0.0,-0.98,-0.09,-0.08,1.00000,0.00017,0.00013,-0.00017,0.003,0.0000
2024,6,20,11:51:55.280,-0.952,131,0.1,-0.1,0.0,-0.99,-0.10,-0.08,1.00000,0.00017,0.00010,-0.00017,0.003,0.0000
2024,6,20,11:51:55.280,-0.950,133,0.0,-0.3,0.1,-0.99,-0.09,-0.09,1.00000,0.00017,0.00010,-0.00017,0.003,0.0000
2024,6,20,11:51:55.280,-0.948,135,0.0,-0.3,0.0,-0.98,-0.08,-0.09,1.00000,0.00017,0.00010,-0.00017,0.003,0.0000
2024,6,20,11:51:55.280,-0.946,137,0.0,-0.1,0.1,-0.98,-0.08,-0.08,1.00000,0.00020,0.00010,-0.00017,0.003,0.0000
2024,6,20,11:51:55.280,-0.944,139,0.0,-0.2,0.2,-0.99,-0.09,-0.08,1.00000,0.00020,0.00010,-0.00017,0.003,0.0000
2024,6,20,11:51:55.400,-0.942,141,-0.2,0.0,0.1,-0.99,-0.09,-0.09,1.00000,0.00017,0.00010,-0.00017,0.003,0.0000
2024,6,20,11:51:55.400,-0.940,143,0.0,0.0,0.1,-0.99,-0.09,-0.08,1.00000,0.00017,0.00010,-0.00017,0.003,0.0000
2024,6,20,11:51:55.400,-0.938,145,-0.1,-0.1,0.1,-0.99,-0.08,-0.08,1.00000,0.00017,0.00010,-0.00017,0.003,0.0000
2024,6,20,11:51:55.400,-0.936,147,0.0,-0.3,0.0,-0.98,-0.09,-0.09,1.00000,0.00017,0.00010,-0.00017,0.003,0.0000
2024,6,20,11:51:55.400,-0.934,149,0.0,-0.3,0.1,-0.99,-0.07,-0.08,1.00000,0.00017,0.00007,-0.00013,0.003,0.0000
2024,6,20,11:51:55.400,-0.932,151,-0.1,-0.1,0.1,-0.98,-0.08,-0.09,1.00000,0.00017,0.00007,-0.00013,0.003,0.0000
2024,6,20,11:51:55.400,-0.930,153,-0.2,-0.3,0.1,-0.99,-0.08,-0.08,1.00000,0.00017,0.00007,-0.00013,0.003,0.0000
2024,6,20,11:51:55.400,-0.928,155,-0.4,-0.3,0.1,-0.98,-0.08,-0.08,1.00000,0.00017,0.00007,-0.00013,0.003,0.0000
2024,6,20,11:51:55.400,-0.926,157,-0.3,-0.2,0.2,-0.99,-0.08,-0.08,1.00000,0.00017,0.00007,-0.00013,0.003,0.0000
2024,6,20,11:51:55.462,-0.924,159,-0.4,-0.3,0.2,-0.99,-0.08,-0.08,1.00000,0.00017,0.00007,-0.00013,0.003,0.0000
2024,6,20,11:51:55.462,-0.922,161,-0.4,-0.3,0.1,-0.99,-0.08,-0.08,1.00000,0.00013,0.00003,-0.00013,0.003,0.0000
2024,6,20,11:51:55.462,-0.920,163,-0.5,-0.3,0.1,-0.99,-0.08,-0.08,1.00000,0.00013,0.00003,-0.00013,0.003,0.0000
2024,6,20,11:51:55.462,-0.918,165,-0.7,-0.2,0.1,-0.99,-0.08,-0.08,1.00000,0.00013,0.00003,-0.00013,0.003,0.0000
2024,6,20,11:51:55.462,-0.916,167,-0.6,-0.3,0.1,-0.99,-0.09,-0.07,1.00000,0.00010,0.00003,-0.00013,0.003,0.0000
2024,6,20,11:51:55.462,-0.914,169,-0.8,-0.2,0.1,-0.98,-0.08,-0.08,1.00000,0.00010,0.00003,-0.00013,0.003,0.0000
2024,6,20,11:51:55.462,-0.912,171,-0.7,-0.3,0.2,-0.98,-0.08,-0.07,1.00000,0.00007,0.00003,-0.00010,0.003,0.0000
2024,6,20,11:51:55.462,-0.910,173,-0.9,-0.2,0.2,-0.99,-0.08,-0.08,1.00000,0.00007,0.00003,-0.00010,0.003,0.0000
2024,6,20,11:51:55.462,-0.908,175,-0.9,-0.3,0.2,-0.98,-0.07,-0.08,1.00000,0.00007,0.00000,-0.00010,0.003,0.0000
2024,6,20,11:51:55.520,-0.906,177,-0.9,-0.3,0.1,-0.99,-0.08,-0.09,1.00000,0.00003,0.00000,-0.00010,0.003,0.0000
2024,6,20,11:51:55.520,-0.904,179,-0.7,-0.5,0.1,-0.99,-0.09,-0.08,1.00000,0.00003,0.00000,-0.00010,0.003,0.0000
2024,6,20,11:51:55.520,-0.902,181,-0.8,-0.3,0.2,-0.99,-0.08,-0.08,1.00000,0.00000,0.00000,-0.00010,0.003,0.0000
2024,6,20,11:51:55.521,-0.900,183,-0.9,-0.1,0.2,-0.99,-0.07,-0.08,1.00000,0.00000,0.00000,-0.00010,0.003,0.0000
2024,6,20,11:51:55.521,-0.898,185,-0.9,-0.1,0.3,-0.99,-0.08,-0.08,1.00000,0.00000,0.00000,-0.00010,0.003,0.0000
2024,6,20,11:51:55.521,-0.896,187,-0.5,-0.3,0.1,-0.99,-0.08,-0.08,1.00000,0.00000,0.00000,-0.00010,0.003,0.0000
2024,6,20,11:51:55.521,-0.894,189,-0.6,-0.3,0.1,-0.98,-0.07,-0.08,1.00000,0.00000,0.00000,-0.00007,0.003,0.0000
2024,6,20,11:51:55.521,-0.892,191,-0.5,-0.3,0.2,-0.99,-0.08,-0.08,1.00000,-0.00003,0.00000,-0.00007,0.003,0.0000
2024,6,20,11:51:55.521,-0.890,193,-0.4,-0.3,0.1,-0.99,-0.08,-0.07,1.00000,-0.00003,0.00000,-0.00007,0.003,0.0000
2024,6,20,11:51:55.580,-0.888,195,-0.4,-0.3,0.0,-0.98,-0.07,-0.08,1.00000,-0.00003,0.00000,-0.00007,0.003,0.0000
2024,6,20,11:51:55.580,-0.886,197,-0.3,-0.3,0.1,-0.98,-0.08,-0.08,1.00000,-0.00003,-0.00003,-0.00007,0.003,0.0000
2024,6,20,11:51:55.580,-0.884,199,-0.2,-0.2,0.1,-0.99,-0.07,-0.07,1.00000,-0.00007,-0.00003,-0.00007,0.003,0.0000
2024,6,20,11:51:55.580,-0.882,201,-0.2,-0.2,0.0,-0.99,-0.08,-0.07,1.00000,-0.00007,-0.00003,-0.00007,0.003,0.0000
2024,6,20,11:51:55.580,-0.880,203,0.0,-0.3,0.0,-0.99,-0.08,-0.07,1.00000,-0.00007,-0.00003,-0.00007,0.003,0.0000
2024,6,20,11:51:55.580,-0.878,205,-0.1,-0.2,0.1,-0.98,-0.06,-0.08,1.00000,-0.00007,-0.00003,-0.00007,0.003,0.0000
2024,6,20,11:51:55.580,-0.876,207,-0.1,-0.2,0.2,-1.00,-0.07,-0.08,1.00000,-0.00007,-0.00003,-0.00007,0.003,0.0000
2024,6,20,11:51:55.580,-0.874,209,0.1,-0.1,0.1,-0.98,-0.07,-0.08,1.00000,-0.00007,-0.00003,-0.00007,0.003,0.0000
2024,6,20,11:51:55.580,-0.872,211,0.1,-0.2,0.0,-0.99,-0.07,-0.07,1.00000,-0.00007,-0.00003,-0.00007,0.003,0.0000
2024,6,20,11:51:55.640,-0.870,213,0.1,-0.1,0.1,-0.98,-0.08,-0.07,1.00000,-0.00007,-0.00007,-0.00007,0.003,0.0000
2024,6,20,11:51:55.640,-0.868,215,0.0,-0.1,0.1,-0.99,-0.07,-0.07,1.00000,-0.00007,-0.00007,-0.00007,0.003,0.0000
2024,6,20,11:51:55.640,-0.866,217,0.0,0.0,0.0,-0.99,-0.07,-0.07,1.00000,-0.00007,-0.00007,-0.00007,0.003,0.0000
2024,6,20,11:51:55.640,-0.864,219,0.2,-0.1,0.0,-1.00,-0.06,-0.07,1.00000,-0.00007,-0.00007,-0.00007,0.003,0.0000
2024,6,20,11:51:55.640,-0.862,221,0.0,0.0,0.0,-0.98,-0.07,-0.07,1.00000,-0.00007,-0.00007,-0.00007,0.003,0.0000
2024,6,20,11:51:55.640,-0.860,223,0.0,-0.2,0.1,-0.99,-0.07,-0.07,1.00000,-0.00003,-0.00007,-0.00007,0.003,0.0000
2024,6,20,11:51:55.640,-0.858,225,0.0,-0.1,0.1,-0.98,-0.07,-0.07,1.00000,-0.00003,-0.00007,-0.00007,0.003,0.0000
2024,6,20,11:51:55.640,-0.856,227,0.0,0.0,-0.1,-0.98,-0.07,-0.07,1.00000,-0.00007,-0.00007,-0.00007,0.003,0.0000
2024,6,20,11:51:55.640,-0.854,229,0.0,0.0,-0.1,-1.00,-0.06,-0.07,1.00000,-0.00007,-0.00007,-0.00007,0.003,0.0000
2024,6,20,11:51:55.763,-0.852,231,0.0,0.0,0.0,-0.99,-0.07,-0.07,1.00000,-0.00007,-0.00007,-0.00007,0.003,0.0000
2024,6,20,11:51:55.763,-0.850,233,0.1,0.0,0.0,-0.99,-0.07,-0.06,1.00000,-0.00007,-0.00007,-0.00007,0.003,0.0000
2024,6,20,11:51:55.763,-0.848,235,0.2,0.0,0.0,-0.99,-0.07,-0.06,1.00000,-0.00003,-0.00007,-0.00007,0.003,0.0000
2024,6,20,11:51:55.763,-0.846,237,0.0,0.0,0.0,-0.99,-0.07,-0.07,1.00000,-0.00003,-0.00007,-0.00007,0.003,0.0000
2024,6,20,11:51:55.763,-0.844,239,0.0,0.1,0.0,-0.99,-0.07,-0.07,1.00000,-0.00003,-0.00007,-0.00007,0.003,0.0000
2024,6,20,11:51:55.763,-0.842,241,0.0,0.0,0.0,-0.99,-0.07,-0.08,1.00000,-0.00003,-0.00007,-0.00007,0.003,0.0000
2024,6,20,11:51:55.763,-0.840,243,0.2,0.0,0.0,-0.98,-0.07,-0.06,1.00000,-0.00003,-0.00007,-0.00007,0.003,0.0000
2024,6,20,11:51:55.763,-0.838,245,0.1,0.0,0.0,-0.98,-0.08,-0.06,1.00000,-0.00003,-0.00007,-0.00007,0.003,0.0000
2024,6,20,11:51:55.763,-0.836,247,0.0,0.1,0.0,-0.99,-0.08,-0.07,1.00000,-0.00003,-0.00007,-0.00007,0.003,0.0000
2024,6,20,11:51:55.817,-0.834,249,0.1,0.0,0.0,-0.99,-0.08,-0.07,1.00000,-0.00003,-0.00007,-0.00007,0.003,0.0000
2024,6,20,11:51:55.817,-0.832,1,0.0,0.1,0.0,-0.98,-0.07,-0.07,1.00000,-0.00003,-0.00007,-0.00007,0.003,0.0000
2024,6,20,11:51:55.817,-0.830,3,0.0,0.0,-0.1,-0.99,-0.07,-0.06,1.00000,-0.00003,-0.00007,-0.00007,0.003,0.0000
2024,6,20,11:51:55.817,-0.828,5,0.2,0.1,0.0,-0.98,-0.08,-0.07,1.00000,-0.00003,-0.00007,-0.00007,0.003,0.0000
2024,6,20,11:51:55.817,-0.826,7,0.2,0.1,-0.1,-0.99,-0.07,-0.07,1.00000,-0.00003,-0.00007,-0.00007,0.003,0.0000
2024,6,20,11:51:55.817,-0.824,9,0.3,0.0,0.1,-0.98,-0.08,-0.08,1.00000,-0.00003,-0.00007,-0.00007,0.003,0.0000
2024,6,20,11:51:55.817,-0.822,11,0.3,0.0,-0.1,-0.98,-0.08,-0.07,1.00000,0.00000,-0.00007,-0.00007,0.003,0.0000
2024,6,20,11:51:55.817,-0.820,13,0.2,0.0,0.0,-0.99,-0.07,-0.08,1.00000,0.00000,-0.00007,-0.00007,0.003,0.0000
2024,6,20,11:51:55.817,-0.818,15,0.1,0.0,-0.1,-0.98,-0.08,-0.07,1.00000,0.00000,-0.00007,-0.00007,0.003,0.0000
2024,6,20,11:51:55.880,-0.816,17,0.3,0.1,-0.1,-0.99,-0.08,-0.07,1.00000,0.00000,-0.00007,-0.00007,0.003,0.0000
2024,6,20,11:51:55.880,-0.814,19,0.3,0.0,0.0,-0.99,-0.08,-0.06,1.00000,0.00000,-0.00007,-0.00007,0.003,0.0000
2024,6,20,11:51:55.880,-0.812,21,0.4,0.0,0.0,-0.99,-0.07,-0.07,1.00000,0.00000,-0.00007,-0.00007,0.003,0.0000
2024,6,20,11:51:55.880,-0.810,23,0.4,0.0,0.1,-0.99,-0.07,-0.07,1.00000,0.00000,-0.00007,-0.00007,0.003,0.0000
2024,6,20,11:51:55.880,-0.808,25,0.2,0.1,0.0,-0.99,-0.09,-0.07,1.00000,0.00000,-0.00007,-0.00007,0.003,0.0000
2024,6,20,11:51:55.880,-0.806,27,0.2,0.1,-0.1,-0.99,-0.07,-0.07,1.00000,0.00000,-0.00003,-0.00007,0.003,0.0000
2024,6,20,11:51:55.880,-0.804,29,0.3,0.0,0.1,-0.99,-0.07,-0.08,1.00000,0.00000,-0.00007,-0.00007,0.003,0.0000
2024,6,20,11:51:55.880,-0.802,31,0.2,0.1,0.0,-0.99,-0.08,-0.07,1.00000,0.00000,-0.00003,-0.00007,0.003,0.0000
2024,6,20,11:51:55.880,-0.800,33,0.4,0.1,0.1,-0.99,-0.07,-0.08,1.00000,0.00000,-0.00003,-0.00007,0.003,0.0000
2024,6,20,11:51:55.940,-0.798,35,0.2,0.0,0.0,-0.99,-0.07,-0.08,1.00000,0.00000,-0.00003,-0.00007,0.003,0.0000
2024,6,20,11:51:55.940,-0.796,37,0.1,0.1,0.0,-0.99,-0.07,-0.08,1.00000,0.00003,-0.00003,-0.00007,0.003,0.0000
2024,6,20,11:51:55.940,-0.794,39,0.2,0.1,0.0,-0.99,-0.09,-0.07,1.00000,0.00003,-0.00003,-0.00007,0.003,0.0000
2024,6,20,11:51:55.940,-0.792,41,0.1,0.1,-0.1,-0.99,-0.09,-0.08,1.00000,0.00003,-0.00003,-0.00007,0.003,0.0000
2024,6,20,11:51:55.940,-0.790,43,0.1,0.1,0.0,-0.99,-0.08,-0.08,1.00000,0.00003,-0.00003,-0.00007,0.003,0.0000
2024,6,20,11:51:55.940,-0.788,45,0.2,0.1,0.0,-0.99,-0.08,-0.08,1.00000,0.00003,-0.00003,-0.00007,0.003,0.0000
2024,6,20,11:51:55.940,-0.786,47,0.2,0.2,0.0,-0.99,-0.08,-0.08,1.00000,0.00003,-0.00003,-0.00007,0.002,0.0000
2024,6,20,11:51:55.940,-0.784,49,0.2,0.1,-0.1,-0.99,-0.09,-0.07,1.00000,0.00003,-0.00003,-0.00007,0.003,0.0000
2024,6,20,11:51:55.940,-0.782,51,0.1,0.1,0.0,-0.99,-0.08,-0.08,1.00000,0.00003,-0.00003,-0.00007,0.003,0.0000
2024,6,20,11:51:56.000,-0.780,53,0.2,0.2,0.0,-0.99,-0.08,-0.08,1.00000,0.00003,-0.00003,-0.00007,0.003,0.0000
2024,6,20,11:51:56.000,-0.778,55,0.3,0.1,-0.1,-0.99,-0.08,-0.08,1.00000,0.00007,0.00000,-0.00007,0.003,0.0000
2024,6,20,11:51:56.000,-0.776,57,0.4,0.0,0.0,-0.98,-0.09,-0.08,1.00000,0.00007,0.00000,-0.00007,0.003,0.0000
2024,6,20,11:51:56.000,-0.774,59,0.2,0.1,-0.1,-1.00,-0.09,-0.07,1.00000,0.00007,0.00000,-0.00007,0.003,0.0000
2024,6,20,11:51:56.000,-0.772,61,0.2,0.1,0.0,-0.99,-0.08,-0.08,1.00000,0.00007,0.00000,-0.00007,0.003,0.0000
2024,6,20,11:51:56.000,-0.770,63,0.3,0.1,0.0,-1.00,-0.08,-0.08,1.00000,0.00007,0.00000,-0.00007,0.003,0.0000
2024,6,20,11:51:56.000,-0.768,65,0.3,0.0,-0.1,-0.98,-0.09,-0.08,1.00000,0.00010,0.00000,-0.00007,0.003,0.0000
2024,6,20,11:51:56.000,-0.766,67,0.3,0.1,0.0,-0.99,-0.07,-0.08,1.00000,0.00010,0.00000,-0.00007,0.003,0.0000
2024,6,20,11:51:56.000,-0.764,69,0.4,0.1,0.0,-0.99,-0.09,-0.08,1.00000,0.00010,0.00000,-0.00007,0.003,0.0000
2024,6,20,11:51:56.122,-0.762,71,0.4,0.0,0.0,-0.99,-0.08,-0.07,1.00000,0.00010,0.00000,-0.00007,0.003,0.0000
2024,6,20,11:51:56.122,-0.760,73,0.3,0.1,0.0,-0.98,-0.08,-0.07,1.00000,0.00010,0.00000,-0.00007,0.003,0.0000
2024,6,20,11:51:56.122,-0.758,75,0.3,0.2,0.0,-0.99,-0.08,-0.08,1.00000,0.00000,0.00000,0.00000,0.003,0.0000
2024,6,20,11:51:56.122,-0.756,77,0.2,0.1,-0.1,-0.99,-0.07,-0.07,1.00000,0.00000,0.00000,0.00000,0.003,0.0000
2024,6,20,11:51:56.122,-0.754,79,0.1,0.1,0.0,-0.99,-0.07,-0.07,1.00000,0.00000,0.00000,0.00000,0.003,0.0000
2024,6,20,11:51:56.122,-0.752,81,0.3,0.0,0.1,-0.99,-0.08,-0.08,1.00000,0.00000,0.00000,0.00000,0.003,0.0000
2024,6,20,11:51:56.122,-0.750,83,0.3,0.0,0.0,-0.98,-0.08,-0.07,1.00000,0.00000,0.00000,0.00000,0.003,0.0000
2024,6,20,11:51:56.122,-0.748,85,-0.1,0.1,-0.1,-0.99,-0.09,-0.08,1.00000,0.00000,0.00000,0.00000,0.003,0.0000
2024,6,20,11:51:56.122,-0.746,87,0.0,0.1,0.0,-0.99,-0.08,-0.07,1.00000,0.00000,0.00000,0.00000,0.003,0.0000
2024,6,20,11:51:56.240,-0.744,89,-0.2,0.2,0.0,-0.99,-0.08,-0.08,1.00000,0.00000,0.00000,0.00000,0.003,0.0000
2024,6,20,11:51:56.240,-0.742,91,0.0,0.0,0.0,-0.98,-0.08,-0.07,1.00000,0.00000,0.00000,0.00000,0.003,0.0000
2024,6,20,11:51:56.240,-0.740,93,0.0,0.0,0.0,-0.99,-0.08,-0.07,1.00000,0.00000,0.00000,0.00000,0.003,0.0000
2024,6,20,11:51:56.240,-0.738,95,-0.4,0.1,0.1,-0.99,-0.09,-0.08,1.00000,0.00000,0.00000,0.00000,0.003,0.0000
2024,6,20,11:51:56.240,-0.736,97,-0.4,0.1,0.0,-0.99,-0.08,-0.08,1.00000,0.00000,0.00000,0.00000,0.003,0.0000
2024,6,20,11:51:56.240,-0.734,99,-0.1,0.0,0.1,-0.99,-0.08,-0.07,1.00000,0.00000,0.00000,0.00000,0.003,0.0000
2024,6,20,11:51:56.240,-0.732,101,-0.2,0.0,0.0,-0.99,-0.08,-0.07,1.00000,0.00000,0.00000,0.00000,0.003,0.0000
2024,6,20,11:51:56.240,-0.730,103,-0.3,0.0,0.2,-0.99,-0.09,-0.07,1.00000,0.00000,0.00000,0.00000,0.003,0.0000
2024,6,20,11:51:56.240,-0.728,105,-0.4,0.1,0.1,-0.99,-0.08,-0.08,1.00000,0.00000,0.00000,0.00000,0.003,0.0000
2024,6,20,11:51:56.300,-0.726,107,-0.4,0.1,0.1,-0.99,-0.08,-0.07,1.00000,0.00000,0.00000,0.00000,0.003,0.0000
2024,6,20,11:51:56.300,-0.724,109,-0.3,0.0,0.1,-0.99,-0.08,-0.07,1.00000,0.00000,0.00000,0.00000,0.003,0.0000
2024,6,20,11:51:56.300,-0.722,111,-0.4,0.1,0.1,-1.00,-0.08,-0.08,1.00000,-0.00003,0.00000,0.00000,0.003,0.0000
2024,6,20,11:51:56.300,-0.720,113,-0.3,0.1,0.1,-0.99,-0.07,-0.08,1.00000,-0.00003,0.00000,0.00000,0.003,0.0000
2024,6,20,11:51:56.300,-0.718,115,-0.2,0.0,0.0,-0.99,-0.07,-0.07,1.00000,-0.00003,0.00000,0.00000,0.003,0.0000
2024,6,20,11:51:56.300,-0.716,117,-0.1,0.1,0.1,-0.98,-0.08,-0.08,1.00000,-0.00003,0.00000,0.00000,0.003,0.0000
2024,6,20,11:51:56.300,-0.714,119,-0.5,0.2,0.0,-1.00,-0.07,-0.08,1.00000,-0.00003,0.00003,0.00000,0.003,0.0000
2024,6,20,11:51:56.300,-0.712,121,-0.3,0.3,0.1,-0.99,-0.07,-0.08,1.00000,-0.00007,0.00003,0.00000,0.003,0.0000
2024,6,20,11:51:56.300,-0.710,123,0.0,0.0,0.0,-1.00,-0.08,-0.07,1.00000,-0.00007,0.00003,0.00000,0.003,0.0000
2024,6,20,11:51:56.362,-0.708,125,-0.1,0.0,0.0,-0.99,-0.08,-0.07,1.00000,-0.00007,0.00003,0.00000,0.003,0.0000
2024,6,20,11:51:56.362,-0.706,127,0.0,0.1,0.1,-0.99,-0.09,-0.08,1.00000,-0.00007,0.00003,0.00000,0.003,0.0000
2024,6,20,11:51:56.362,-0.704,129,0.0,0.0,0.0,-0.99,-0.09,-0.08,1.00000,-0.00007,0.00003,0.00000,0.003,0.0000
2024,6,20,11:51:56.362,-0.702,131,0.0,0.0,0.1,-0.99,-0.08,-0.08,1.00000,-0.00007,0.00003,0.00000,0.003,0.0000
2024,6,20,11:51:56.362,-0.700,133,-0.1,0.1,0.0,-1.00,-0.08,-0.07,1.00000,-0.00007,0.00003,0.00000,0.003,0.0000
2024,6,20,11:51:56.362,-0.698,135,-0.2,0.1,0.1,-0.99,-0.09,-0.07,1.00000,-0.00007,0.00003,0.00000,0.003,0.0000
2024,6,20,11:51:56.362,-0.696,137,0.0,0.1,0.0,-0.98,-0.08,-0.07,1.00000,-0.00007,0.00003,0.00000,0.003,0.0000
2024,6,20,11:51:56.362,-0.694,139,-0.1,0.1,0.1,-0.98,-0.07,-0.06,1.00000,-0.00007,0.00003,0.00000,0.003,0.0000
2024,6,20,11:51:56.362,-0.692,141,-0.2,0.2,0.0,-1.00,-0.08,-0.07,1.00000,-0.00007,0.00003,0.00000,0.003,0.0000
2024,6,20,11:51:56.481,-0.690,143,-0.3,0.3,0.0,-0.99,-0.08,-0.07,1.00000,-0.00007,0.00007,0.00000,0.003,0.0000
2024,6,20,11:51:56.481,-0.688,145,-0.4,0.0,0.0,-0.99,-0.08,-0.07,1.00000,-0.00007,0.00007,0.00000,0.003,0.0000
2024,6,20,11:51:56.481,-0.686,147,-0.4,0.3,-0.1,-0.99,-0.09,-0.07,1.00000,-0.00010,0.00007,0.00000,0.003,0.0000
2024,6,20,11:51:56.481,-0.684,149,-0.4,0.0,0.0,-0.99,-0.08,-0.08,1.00000,-0.00010,0.00007,0.00000,0.003,0.0000
2024,6,20,11:51:56.481,-0.682,151,-0.4,0.1,-0.1,-0.99,-0.09,-0.08,1.00000,-0.00010,0.00007,0.00000,0.003,0.0000
2024,6,20,11:51:56.481,-0.680,153,-0.4,0.1,0.0,-0.98,-0.08,-0.08,1.00000,-0.00010,0.00007,0.00000,0.003,0.0000
2024,6,20,11:51:56.481,-0.678,155,-0.7,0.3,0.0,-0.98,-0.07,-0.07,1.00000,-0.00013,0.00007,0.00000,0.003,0.0000
2024,6,20,11:51:56.481,-0.676,157,-0.9,0.3,0.0,-0.98,-0.08,-0.07,1.00000,-0.00013,0.00007,0.00000,0.003,0.0000
2024,6,20,11:51:56.481,-0.674,159,-0.9,0.1,-0.1,-0.99,-0.08,-0.07,1.00000,-0.00017,0.00007,0.00000,0.003,0.0000
2024,6,20,11:51:56.540,-0.672,161,-0.9,0.1,0.1,-0.99,-0.07,-0.08,1.00000,-0.00017,0.00007,0.00000,0.003,0.0000
2024,6,20,11:51:56.540,-0.670,163,-0.9,0.3,0.0,-0.99,-0.07,-0.08,1.00000,-0.00020,0.00010,0.00000,0.003,0.0000
2024,6,20,11:51:56.540,-0.668,165,-0.9,0.1,0.0,-0.99,-0.08,-0.08,1.00000,-0.00020,0.00010,0.00000,0.003,0.0000
2024,6,20,11:51:56.540,-0.666,167,-1.2,0.3,0.1,-0.99,-0.08,-0.08,1.00000,-0.00023,0.00010,0.00000,0.003,0.0000
2024,6,20,11:51:56.540,-0.664,169,-0.8,0.1,0.1,-0.99,-0.07,-0.07,1.00000,-0.00023,0.00010,0.00000,0.003,0.0000
2024,6,20,11:51:56.540,-0.662,171,-0.8,0.3,0.1,-0.98,-0.07,-0.08,1.00000,-0.00027,0.00010,0.00003,0.003,0.0000
2024,6,20,11:51:56.540,-0.660,173,-0.6,0.1,0.1,-0.98,-0.07,-0.08,1.00000,-0.00027,0.00010,0.00003,0.003,0.0000
2024,6,20,11:51:56.540,-0.658,175,-0.9,0.3,0.1,-0.98,-0.08,-0.08,1.00000,-0.00030,0.00010,0.00003,0.003,0.0000
2024,6,20,11:51:56.540,-0.656,177,-1.1,0.5,0.0,-0.99,-0.08,-0.09,1.00000,-0.00030,0.00013,0.00003,0.003,0.0000
2024,6,20,11:51:56.600,-0.654,179,-0.5,0.1,0.0,-0.98,-0.07,-0.08,1.00000,-0.00033,0.00013,0.00003,0.003,0.0000
2024,6,20,11:51:56.600,-0.652,181,-0.6,0.0,0.1,-0.98,-0.08,-0.07,1.00000,-0.00033,0.00013,0.00003,0.003,0.0000
2024,6,20,11:51:56.600,-0.650,183,-0.8,0.1,0.0,-0.99,-0.08,-0.09,1.00000,-0.00033,0.00013,0.00003,0.003,0.0000
2024,6,20,11:51:56.600,-0.648,185,-0.6,0.3,0.1,-0.99,-0.09,-0.09,1.00000,-0.00037,0.00013,0.00003,0.003,0.0000
2024,6,20,11:51:56.600,-0.646,187,-0.6,0.3,0.1,-0.99,-0.08,-0.08,1.00000,-0.00037,0.00013,0.00003,0.003,0.0000
2024,6,20,11:51:56.600,-0.644,189,-0.4,0.2,0.0,-0.99,-0.08,-0.08,0.99997,-0.00037,0.00013,0.00003,0.003,0.0000
2024,6,20,11:51:56.600,-0.642,191,-0.3,0.3,0.0,-0.98,-0.07,-0.09,0.99997,-0.00040,0.00013,0.00003,0.003,0.0000
2024,6,20,11:51:56.600,-0.640,193,-0.5,0.2,0.0,-0.99,-0.07,-0.08,0.99997,-0.00040,0.00017,0.00003,0.003,0.0000
2024,6,20,11:51:56.600,-0.638,195,-0.2,0.1,-0.1,-0.98,-0.08,-0.08,0.99997,-0.00040,0.00017,0.00003,0.003,0.0000
2024,6,20,11:51:56.660,-0.636,197,-0.6,0.5,0.0,-0.99,-0.08,-0.09,0.99997,-0.00040,0.00017,0.00003,0.003,0.0000
2024,6,20,11:51:56.660,-0.634,199,-0.4,0.3,0.0,-0.98,-0.08,-0.09,0.99997,-0.00043,0.00017,0.00003,0.003,0.0000
2024,6,20,11:51:56.660,-0.632,201,-0.3,0.3,0.0,-0.98,-0.09,-0.09,0.99997,-0.00043,0.00017,0.00003,0.003,0.0000
2024,6,20,11:51:56.660,-0.630,203,-0.2,0.2,-0.1,-0.99,-0.08,-0.08,0.99997,-0.00043,0.00017,0.00003,0.003,0.0000
2024,6,20,11:51:56.660,-0.628,205,-0.4,0.3,0.0,-0.99,-0.08,-0.09,0.99997,-0.00043,0.00020,0.00003,0.003,0.0000
2024,6,20,11:51:56.660,-0.626,207,-0.3,0.3,0.1,-0.99,-0.06,-0.08,0.99997,-0.00043,0.00020,0.00003,0.003,0.0000
2024,6,20,11:51:56.660,-0.624,209,-0.2,0.2,0.0,-1.00,-0.08,-0.10,0.99997,-0.00043,0.00020,0.00003,0.003,0.0000
2024,6,20,11:51:56.660,-0.622,211,-0.5,0.3,-0.1,-0.99,-0.07,-0.09,0.99997,-0.00047,0.00020,0.00003,0.003,0.0000
2024,6,20,11:51:56.660,-0.620,213,-0.4,0.3,0.0,-0.98,-0.07,-0.09,0.99997,-0.00047,0.00020,0.00003,0.003,0.0000
2024,6,20,11:51:56.721,-0.618,215,0.0,0.2,0.1,-0.99,-0.09,-0.09,0.99997,-0.00047,0.00020,0.00003,0.003,0.0000
2024,6,20,11:51:56.721,-0.616,217,-0.5,0.3,-0.1,-0.99,-0.08,-0.08,0.99997,-0.00047,0.00023,0.00003,0.003,0.0000
2024,6,20,11:51:56.721,-0.614,219,-0.5,0.4,0.0,-0.99,-0.07,-0.10,0.99997,-0.00050,0.00023,0.00003,0.003,0.0000
2024,6,20,11:51:56.721,-0.612,221,-0.1,0.2,0.0,-0.99,-0.08,-0.09,0.99997,-0.00050,0.00023,0.00003,0.003,0.0000
2024,6,20,11:51:56.721,-0.610,223,0.0,0.1,0.0,-0.98,-0.08,-0.08,0.99997,-0.00050,0.00023,0.00003,0.003,0.0000
2024,6,20,11:51:56.721,-0.608,225,-0.3,0.3,-0.1,-0.99,-0.09,-0.09,0.99997,-0.00050,0.00023,0.00003,0.003,0.0000
2024,6,20,11:51:56.721,-0.606,227,-0.2,0.3,0.0,-1.00,-0.09,-0.10,0.99997,-0.00050,0.00023,0.00003,0.003,0.0000
2024,6,20,11:51:56.721,-0.604,229,-0.5,0.3,-0.1,-0.99,-0.08,-0.10,0.99997,-0.00050,0.00027,0.00003,0.003,0.0000
2024,6,20,11:51:56.721,-0.602,231,0.3,0.0,0.0,-0.98,-0.07,-0.09,0.99997,-0.00050,0.00027,0.00003,0.003,0.0000
2024,6,20,11:51:56.841,-0.600,233,0.2,0.1,0.1,-0.98,-0.09,-0.09,0.99997,-0.00050,0.00027,0.00003,0.003,0.0000
2024,6,20,11:51:56.841,-0.598,235,-0.4,0.5,0.0,-0.97,-0.06,-0.10,0.99997,-0.00050,0.00027,0.00003,0.003,0.0000
2024,6,20,11:51:56.841,-0.596,237,-0.2,0.3,-0.1,-0.99,-0.09,-0.10,0.99997,-0.00050,0.00027,0.00003,0.003,0.0000
2024,6,20,11:51:56.841,-0.594,239,0.3,0.1,0.0,-1.00,-0.09,-0.09,0.99997,-0.00050,0.00027,0.00003,0.003,0.0000
2024,6,20,11:51:56.841,-0.592,241,0.1,0.2,0.1,-0.99,-0.05,-0.09,0.99997,-0.00050,0.00027,0.00003,0.003,0.0000
2024,6,20,11:51:56.841,-0.590,243,0.0,0.1,0.0,-0.97,-0.06,-0.08,0.99997,-0.00050,0.00027,0.00003,0.003,0.0000
2024,6,20,11:51:56.841,-0.588,245,0.0,0.1,0.0,-0.98,-0.08,-0.09,0.99997,-0.00050,0.00027,0.00003,0.003,0.0000
2024,6,20,11:51:56.841,-0.586,247,0.0,0.1,-0.1,-0.98,-0.08,-0.08,0.99997,-0.00050,0.00030,0.00003,0.003,0.0000
2024,6,20,11:51:56.841,-0.584,249,-0.1,0.1,-0.1,-0.98,-0.09,-0.10,0.99997,-0.00050,0.00030,0.00003,0.003,0.0000
2024,6,20,11:51:56.899,-0.582,1,-0.1,0.1,0.0,-0.99,-0.07,-0.09,0.99997,-0.00050,0.00030,0.00003,0.003,0.0000
2024,6,20,11:51:56.899,-0.580,3,0.1,0.0,0.0,-0.98,-0.06,-0.09,0.99997,-0.00050,0.00030,0.00003,0.003,0.0000
2024,6,20,11:51:56.899,-0.578,5,0.0,0.1,0.0,-0.98,-0.07,-0.10,0.99997,-0.00050,0.00030,0.00003,0.003,0.0000
2024,6,20,11:51:56.899,-0.576,7,0.1,0.0,0.1,-0.98,-0.09,-0.09,0.99997,-0.00050,0.00030,0.00003,0.003,0.0000
2024,6,20,11:51:56.899,-0.574,9,-0.6,0.3,0.0,-0.98,-0.08,-0.09,0.99997,-0.00050,0.00030,0.00003,0.003,0.0000
2024,6,20,11:51:56.899,-0.572,11,-0.6,0.2,0.0,-0.99,-0.08,-0.10,0.99997,-0.00053,0.00030,0.00003,0.003,0.0000
2024,6,20,11:51:56.899,-0.570,13,0.0,0.0,0.1,-0.98,-0.06,-0.10,0.99997,-0.00053,0.00030,0.00003,0.003,0.0000
2024,6,20,11:51:56.899,-0.568,15,-0.2,0.1,0.0,-1.00,-0.06,-0.09,0.99997,-0.00053,0.00030,0.00003,0.003,0.0000
2024,6,20,11:51:56.899,-0.566,17,-0.4,0.1,0.0,-0.98,-0.08,-0.10,0.99997,-0.00053,0.00030,0.00003,0.003,0.0000
2024,6,20,11:51:56.962,-0.564,19,-0.6,0.1,0.0,-1.00,-0.07,-0.10,0.99997,-0.00053,0.00030,0.00003,0.003,0.0000
2024,6,20,11:51:56.962,-0.562,21,-0.7,0.1,0.0,-0.99,-0.08,-0.11,0.99997,-0.00057,0.00030,0.00003,0.003,0.0000
2024,6,20,11:51:56.962,-0.560,23,-0.5,0.0,0.0,-0.99,-0.06,-0.09,0.99997,-0.00057,0.00030,0.00003,0.003,0.0000
2024,6,20,11:51:56.962,-0.558,25,-0.8,0.1,0.0,-0.99,-0.06,-0.10,0.99997,-0.00060,0.00033,0.00003,0.003,0.0000
2024,6,20,11:51:56.962,-0.556,27,-0.6,0.0,-0.1,-0.99,-0.08,-0.10,0.99997,-0.00060,0.00033,0.00003,0.003,0.0000
2024,6,20,11:51:56.962,-0.554,29,-0.4,0.0,0.0,-0.99,-0.09,-0.09,0.99997,-0.00060,0.00030,0.00003,0.003,0.0000
2024,6,20,11:51:56.963,-0.552,31,-0.6,0.0,0.0,-0.99,-0.09,-0.10,0.99997,-0.00063,0.00030,0.00003,0.003,0.0000
2024,6,20,11:51:56.963,-0.550,33,-0.8,0.1,0.0,-0.97,-0.06,-0.10,0.99997,-0.00063,0.00030,0.00003,0.003,0.0000
2024,6,20,11:51:56.963,-0.548,35,-0.6,0.1,-0.1,-0.99,-0.08,-0.09,0.99997,-0.00063,0.00033,0.00003,0.003,0.0000
2024,6,20,11:51:57.021,-0.546,37,-0.5,-0.1,0.0,-0.99,-0.07,-0.10,0.99997,-0.00067,0.00030,0.00003,0.003,0.0000
2024,6,20,11:51:57.021,-0.544,39,-0.3,0.0,0.0,-0.98,-0.08,-0.10,0.99997,-0.00067,0.00030,0.00003,0.003,0.0000
2024,6,20,11:51:57.021,-0.542,41,-0.5,0.0,0.0,-0.99,-0.08,-0.10,0.99997,-0.00067,0.00030,0.00003,0.003,0.0000
2024,6,20,11:51:57.021,-0.540,43,0.0,-0.3,0.0,-0.99,-0.06,-0.10,0.99997,-0.00067,0.00030,0.00003,0.003,0.0000
2024,6,20,11:51:57.021,-0.538,45,-0.2,0.0,-0.1,-0.98,-0.06,-0.11,0.99997,-0.00067,0.00030,0.00003,0.003,0.0000
2024,6,20,11:51:57.021,-0.536,47,0.0,0.0,0.1,-0.99,-0.07,-0.10,0.99997,-0.00067,0.00030,0.00003,0.003,0.0000
2024,6,20,11:51:57.021,-0.534,49,0.0,0.0,-0.1,-1.00,-0.10,-0.10,0.99997,-0.00067,0.00030,0.00003,0.003,0.0000
2024,6,20,11:51:57.021,-0.532,51,0.2,-0.1,0.0,-0.98,-0.08,-0.10,0.99997,-0.00067,0.00030,0.00003,0.003,0.0000
2024,6,20,11:51:57.021,-0.530,53,0.2,-0.2,0.0,-1.00,-0.06,-0.10,0.99997,-0.00067,0.00030,0.00003,0.003,0.0000
2024,6,20,11:51:57.081,-0.528,55,0.2,0.0,-0.1,-1.00,-0.07,-0.09,0.99997,-0.00067,0.00030,0.00003,0.003,0.0000
2024,6,20,11:51:57.081,-0.526,57,0.1,0.0,-0.1,-1.00,-0.07,-0.12,0.99997,-0.00067,0.00030,0.00000,0.003,0.0000
2024,6,20,11:51:57.081,-0.524,59,0.6,-0.2,-0.1,-0.98,-0.06,-0.10,0.99997,-0.00067,0.00030,0.00000,0.003,0.0000
2024,6,20,11:51:57.081,-0.522,61,0.6,-0.3,0.0,-0.98,-0.07,-0.09,0.99997,-0.00063,0.00030,0.00000,0.003,0.0000
2024,6,20,11:51:57.081,-0.520,63,0.4,-0.2,0.0,-0.99,-0.07,-0.09,0.99997,-0.00063,0.00030,0.00000,0.003,0.0000
2024,6,20,11:51:57.081,-0.518,65,0.5,-0.2,0.0,-0.99,-0.08,-0.10,0.99997,-0.00063,0.00027,0.00000,0.003,0.0000
2024,6,20,11:51:57.081,-0.516,67,0.3,0.0,0.1,-0.99,-0.06,-0.09,0.99997,-0.00063,0.00027,0.00000,0.003,0.0000
2024,6,20,11:51:57.081,-0.514,69,0.4,-0.1,0.0,-0.99,-0.08,-0.10,0.99997,-0.00060,0.00027,0.00000,0.003,0.0000
2024,6,20,11:51:57.081,-0.512,71,0.7,-0.3,-0.1,-0.99,-0.08,-0.09,0.99997,-0.00060,0.00027,0.00000,0.003,0.0000
2024,6,20,11:51:57.201,-0.510,73,0.3,0.0,0.0,-0.99,-0.08,-0.10,0.99997,-0.00060,0.00027,0.00000,0.003,0.0000
2024,6,20,11:51:57.201,-0.508,75,0.8,-0.3,0.0,-0.97,-0.07,-0.09,0.99997,-0.00057,0.00027,0.00000,0.003,0.0000
2024,6,20,11:51:57.201,-0.506,77,0.7,-0.4,0.0,-0.99,-0.07,-0.09,0.99997,-0.00057,0.00027,0.00000,0.003,0.0000
2024,6,20,11:51:57.201,-0.504,79,0.0,0.0,-0.1,-0.97,-0.08,-0.09,0.99997,-0.00057,0.00027,0.00000,0.003,0.0000
2024,6,20,11:51:57.201,-0.502,81,0.4,0.0,-0.1,-0.98,-0.08,-0.09,0.99997,-0.00057,0.00027,0.00000,0.003,0.0000
2024,6,20,11:51:57.201,-0.500,83,0.4,-0.2,0.0,-0.99,-0.06,-0.09,0.99997,-0.00053,0.00027,0.00000,0.003,0.0000
2024,6,20,11:51:57.201,-0.498,85,0.5,-0.2,0.1,-0.97,-0.05,-0.08,0.99997,-0.00053,0.00023,0.00000,0.003,0.0000
2024,6,20,11:51:57.201,-0.496,87,0.2,-0.2,-0.1,-0.99,-0.08,-0.09,0.99997,-0.00053,0.00023,0.00000,0.003,0.0000
2024,6,20,11:51:57.201,-0.494,89,0.4,-0.3,0.0,-0.99,-0.07,-0.09,0.99997,-0.00053,0.00023,0.00000,0.003,0.0000
2024,6,20,11:51:57.260,-0.492,91,0.3,-0.3,0.0,-0.99,-0.07,-0.09,0.99997,-0.00050,0.00023,0.00000,0.003,0.0000
2024,6,20,11:51:57.260,-0.490,93,0.4,-0.2,0.1,-0.99,-0.07,-0.09,0.99997,-0.00050,0.00023,0.00000,0.003,0.0000
2024,6,20,11:51:57.260,-0.488,95,0.1,0.0,-0.1,-0.98,-0.08,-0.09,0.99997,-0.00050,0.00023,0.00000,0.003,0.0000
2024,6,20,11:51:57.260,-0.486,97,0.4,-0.2,-0.1,-0.98,-0.08,-0.09,0.99997,-0.00050,0.00023,0.00000,0.003,0.0000
2024,6,20,11:51:57.260,-0.484,99,0.4,-0.1,-0.1,-0.99,-0.09,-0.10,0.99997,-0.00050,0.00023,0.00000,0.003,0.0000
2024,6,20,11:51:57.260,-0.482,101,0.5,-0.3,0.0,-1.00,-0.08,-0.08,0.99997,-0.00047,0.00020,0.00000,0.003,0.0000
2024,6,20,11:51:57.260,-0.480,103,0.5,-0.2,0.0,-0.98,-0.06,-0.08,0.99997,-0.00047,0.00020,0.00000,0.003,0.0000
2024,6,20,11:51:57.260,-0.478,105,1.2,-0.6,0.1,-0.97,-0.06,-0.08,0.99997,-0.00043,0.00020,0.00000,0.003,0.0000
2024,6,20,11:51:57.260,-0.476,107,0.1,0.0,-0.1,-1.00,-0.08,-0.11,0.99997,-0.00043,0.00020,0.00000,0.003,0.0000
2024,6,20,11:51:57.320,-0.474,109,0.6,-0.1,-0.1,-0.98,-0.09,-0.09,0.99997,-0.00043,0.00020,0.00000,0.003,0.0000
2024,6,20,11:51:57.320,-0.472,111,0.7,-0.2,0.1,-0.97,-0.06,-0.07,0.99997,-0.00043,0.00020,0.00000,0.003,0.0000
2024,6,20,11:51:57.320,-0.470,113,0.9,-0.3,0.0,-0.98,-0.09,-0.07,0.99997,-0.00040,0.00020,0.00000,0.003,0.0000
2024,6,20,11:51:57.320,-0.468,115,0.4,0.0,-0.1,-1.00,-0.09,-0.10,0.99997,-0.00040,0.00020,0.00000,0.003,0.0000
2024,6,20,11:51:57.321,-0.466,117,0.4,-0.2,-0.1,-0.99,-0.05,-0.09,0.99997,-0.00040,0.00017,0.00000,0.003,0.0000
2024,6,20,11:51:57.321,-0.464,119,0.1,0.0,-0.2,-0.99,-0.05,-0.08,0.99997,-0.00040,0.00017,0.00000,0.003,0.0000
2024,6,20,11:51:57.321,-0.462,121,0.9,-0.4,-0.1,-0.98,-0.10,-0.09,0.99997,-0.00037,0.00017,0.00000,0.003,0.0000
2024,6,20,11:51:57.321,-0.460,123,0.6,-0.1,0.0,-1.00,-0.07,-0.08,0.99997,-0.00037,0.00017,0.00000,0.003,0.0000
2024,6,20,11:51:57.321,-0.458,125,0.8,-0.3,0.0,-0.98,-0.06,-0.08,0.99997,-0.00033,0.00017,0.00000,0.003,0.0000
2024,6,20,11:51:57.381,-0.456,127,0.1,0.0,-0.1,-0.98,-0.06,-0.08,0.99997,-0.00033,0.00017,0.00000,0.003,0.0000
2024,6,20,11:51:57.381,-0.454,129,0.7,-0.3,-0.1,-0.98,-0.10,-0.09,0.99997,-0.00033,0.00017,0.00000,0.003,0.0000
2024,6,20,11:51:57.381,-0.452,131,0.7,-0.3,0.0,-1.00,-0.10,-0.09,0.99997,-0.00030,0.00017,0.00000,0.003,0.0000
2024,6,20,11:51:57.381,-0.450,133,0.2,-0.1,0.0,-0.98,-0.05,-0.09,0.99997,-0.00030,0.00017,0.00000,0.003,0.0000
2024,6,20,11:51:57.381,-0.448,135,0.0,0.0,0.0,-0.98,-0.08,-0.08,0.99997,-0.00030,0.00017,0.00000,0.003,0.0000
2024,6,20,11:51:57.381,-0.446,137,0.2,0.0,-0.1,-0.99,-0.11,-0.08,0.99997,-0.00030,0.00017,0.00000,0.003,0.0000
2024,6,20,11:51:57.381,-0.444,139,0.2,0.0,-0.1,-1.01,-0.09,-0.07,0.99997,-0.00030,0.00013,0.00000,0.003,0.0000
2024,6,20,11:51:57.381,-0.442,141,0.0,0.0,-0.1,-0.97,-0.06,-0.09,0.99997,-0.00030,0.00013,0.00000,0.003,0.0000
2024,6,20,11:51:57.381,-0.440,143,0.1,0.0,-0.1,-0.97,-0.07,-0.07,0.99997,-0.00030,0.00013,0.00000,0.003,0.0000
2024,6,20,11:51:57.441,-0.438,145,0.2,0.0,0.0,-0.98,-0.07,-0.07,0.99997,-0.00030,0.00013,0.00000,0.003,0.0000
2024,6,20,11:51:57.441,-0.436,147,0.3,-0.1,0.0,-0.98,-0.09,-0.08,0.99997,-0.00030,0.00013,0.00000,0.003,0.0000
2024,6,20,11:51:57.441,-0.434,149,0.0,0.0,-0.3,-0.99,-0.11,-0.09,0.99997,-0.00030,0.00013,0.00000,0.003,0.0000
2024,6,20,11:51:57.441,-0.432,151,0.1,0.0,-0.1,-0.99,-0.09,-0.08,0.99997,-0.00030,0.00013,0.00000,0.002,0.0000
2024,6,20,11:51:57.441,-0.430,153,0.3,0.0,0.0,-0.99,-0.06,-0.08,0.99997,-0.00027,0.00013,0.00000,0.003,0.0000
2024,6,20,11:51:57.441,-0.428,155,0.6,-0.3,0.0,-0.98,-0.07,-0.08,0.99997,-0.00027,0.00013,0.00000,0.003,0.0000
2024,6,20,11:51:57.441,-0.426,157,0.2,-0.1,0.0,-0.99,-0.08,-0.08,0.99997,-0.00027,0.00013,0.00000,0.003,0.0000
2024,6,20,11:51:57.441,-0.424,159,0.2,0.0,-0.1,-0.99,-0.07,-0.09,0.99997,-0.00027,0.00013,0.00000,0.003,0.0000
2024,6,20,11:51:57.441,-0.422,161,0.2,0.0,0.0,-0.95,-0.06,-0.09,0.99997,-0.00027,0.00013,0.00000,0.003,0.0000
2024,6,20,11:51:57.562,-0.420,163,0.3,0.0,-0.1,-0.99,-0.07,-0.08,0.99997,-0.00023,0.00013,0.00000,0.003,0.0000
2024,6,20,11:51:57.562,-0.418,165,1.1,-0.3,-0.1,-0.98,-0.13,-0.08,1.00000,-0.00023,0.00013,0.00000,0.003,0.0000
2024,6,20,11:51:57.562,-0.416,167,0.2,0.1,-0.1,-0.99,-0.10,-0.09,1.00000,-0.00023,0.00013,0.00000,0.003,0.0000
2024,6,20,11:51:57.562,-0.414,169,0.8,-0.1,0.0,-0.98,-0.08,-0.09,1.00000,-0.00020,0.00013,0.00000,0.003,0.0000
2024,6,20,11:51:57.562,-0.412,171,0.7,0.0,0.0,-0.99,-0.06,-0.08,1.00000,-0.00020,0.00013,0.00000,0.003,0.0000
2024,6,20,11:51:57.562,-0.410,173,0.7,0.0,0.0,-0.98,-0.06,-0.08,1.00000,-0.00020,0.00013,-0.00003,0.003,0.0000
2024,6,20,11:51:57.562,-0.408,175,0.8,-0.1,-0.1,-0.98,-0.09,-0.07,1.00000,-0.00017,0.00013,-0.00003,0.003,0.0000
2024,6,20,11:51:57.562,-0.406,177,0.9,-0.2,-0.1,-0.98,-0.09,-0.07,1.00000,-0.00017,0.00010,-0.00003,0.003,0.0000
2024,6,20,11:51:57.562,-0.404,179,0.6,0.0,-0.1,-0.99,-0.09,-0.08,1.00000,-0.00013,0.00010,-0.00003,0.003,0.0000
2024,6,20,11:51:57.620,-0.402,181,1.2,-0.4,-0.1,-0.99,-0.10,-0.07,1.00000,-0.00013,0.00010,-0.00003,0.003,0.0000
2024,6,20,11:51:57.620,-0.400,183,0.9,-0.3,-0.1,-0.99,-0.06,-0.07,1.00000,-0.00010,0.00010,-0.00003,0.003,0.0000
2024,6,20,11:51:57.620,-0.398,185,0.5,0.0,0.0,-0.96,-0.07,-0.09,1.00000,-0.00010,0.00010,-0.00003,0.003,0.0000
2024,6,20,11:51:57.620,-0.396,187,0.7,0.0,0.1,-0.99,-0.10,-0.07,1.00000,-0.00007,0.00010,-0.00003,0.003,0.0000
2024,6,20,11:51:57.620,-0.394,189,0.4,0.0,-0.1,-1.01,-0.13,-0.10,1.00000,-0.00007,0.00010,-0.00003,0.003,0.0000
2024,6,20,11:51:57.620,-0.392,191,0.4,0.0,0.0,-0.98,-0.08,-0.06,1.00000,-0.00007,0.00010,-0.00003,0.003,0.0000
2024,6,20,11:51:57.620,-0.390,193,0.0,0.1,-0.1,-0.99,-0.09,-0.08,1.00000,-0.00007,0.00010,-0.00003,0.003,0.0000
2024,6,20,11:51:57.620,-0.388,195,0.2,-0.1,0.0,-0.98,-0.06,-0.09,1.00000,-0.00007,0.00010,-0.00003,0.003,0.0000
2024,6,20,11:51:57.620,-0.386,197,0.0,0.0,0.0,-1.00,-0.10,-0.08,1.00000,-0.00007,0.00010,-0.00003,0.003,0.0000
2024,6,20,11:51:57.681,-0.384,199,0.4,-0.2,0.0,-1.00,-0.13,-0.08,1.00000,-0.00007,0.00010,-0.00003,0.003,0.0000
2024,6,20,11:51:57.681,-0.382,201,0.2,0.0,0.0,-1.00,-0.05,-0.07,1.00000,-0.00003,0.00010,-0.00003,0.003,0.0000
2024,6,20,11:51:57.681,-0.380,203,0.0,0.0,0.2,-0.98,-0.03,-0.08,1.00000,-0.00003,0.00010,-0.00003,0.003,0.0000
2024,6,20,11:51:57.681,-0.378,205,0.0,0.0,0.1,-1.00,-0.07,-0.09,1.00000,-0.00003,0.00010,-0.00003,0.003,0.0000
2024,6,20,11:51:57.681,-0.376,207,0.2,-0.3,0.1,-0.99,-0.10,-0.09,1.00000,-0.00003,0.00007,-0.00003,0.003,0.0000
2024,6,20,11:51:57.681,-0.374,209,0.0,0.0,0.1,-0.97,-0.11,-0.07,1.00000,-0.00003,0.00007,0.00000,0.003,0.0000
2024,6,20,11:51:57.681,-0.372,211,0.0,0.0,0.0,-0.98,-0.12,-0.07,1.00000,-0.00003,0.00007,0.00000,0.003,0.0000
2024,6,20,11:51:57.681,-0.370,213,0.0,0.0,0.1,-1.00,-0.10,-0.08,1.00000,-0.00003,0.00007,0.00000,0.003,0.0000
2024,6,20,11:51:57.681,-0.368,215,-0.1,0.0,0.1,-0.99,-0.06,-0.08,1.00000,-0.00003,0.00007,0.00000,0.003,0.0000
2024,6,20,11:51:57.742,-0.366,217,-0.2,0.0,0.0,-0.99,-0.03,-0.06,1.00000,-0.00007,0.00007,0.00000,0.003,0.0000
2024,6,20,11:51:57.742,-0.364,219,0.2,-0.2,0.0,-0.99,-0.09,-0.08,1.00000,-0.00003,0.00007,0.00000,0.003,0.0000
2024,6,20,11:51:57.742,-0.362,221,-0.1,0.0,0.0,-0.99,-0.09,-0.07,1.00000,-0.00003,0.00007,0.00000,0.003,0.0000
2024,6,20,11:51:57.742,-0.360,223,0.2,-0.2,0.0,-0.98,-0.09,-0.08,1.00000,-0.00003,0.00007,0.00000,0.003,0.0000
2024,6,20,11:51:57.742,-0.358,225,0.0,-0.3,0.1,-0.99,-0.09,-0.06,1.00000,-0.00003,0.00007,0.00000,0.003,0.0000
2024,6,20,11:51:57.742,-0.356,227,0.0,-0.1,-0.1,-0.98,-0.09,-0.08,1.00000,-0.00003,0.00007,0.00000,0.003,0.0000
2024,6,20,11:51:57.742,-0.354,229,0.0,-0.1,0.1,-0.98,-0.08,-0.09,1.00000,-0.00003,0.00003,0.00000,0.003,0.0000
2024,6,20,11:51:57.742,-0.352,231,0.0,0.0,0.0,-1.00,-0.11,-0.09,1.00000,-0.00003,0.00003,0.00000,0.003,0.0000
2024,6,20,11:51:57.742,-0.350,233,-0.5,0.0,0.1,-0.99,-0.09,-0.07,1.00000,-0.00007,0.00003,0.00000,0.003,0.0000
2024,6,20,11:51:57.803,-0.348,235,-0.2,-0.1,0.1,-0.99,-0.10,-0.07,1.00000,-0.00007,0.00003,0.00000,0.003,0.0000
2024,6,20,11:51:57.803,-0.346,237,-0.2,-0.3,0.0,-1.00,-0.07,-0.07,1.00000,-0.00007,0.00003,0.00000,0.003,0.0000
2024,6,20,11:51:57.803,-0.344,239,-0.4,0.0,0.2,-0.97,-0.02,-0.08,1.00000,-0.00007,0.00003,0.00000,0.003,0.0000
2024,6,20,11:51:57.803,-0.342,241,-0.6,0.0,0.1,-0.98,-0.07,-0.08,1.00000,-0.00010,0.00003,0.00000,0.003,0.0000
2024,6,20,11:51:57.803,-0.340,243,-0.4,0.0,0.0,-1.00,-0.13,-0.07,1.00000,-0.00010,0.00003,0.00000,0.003,0.0000
2024,6,20,11:51:57.803,-0.338,245,-0.7,0.0,0.0,-0.98,-0.12,-0.07,1.00000,-0.00010,0.00003,0.00000,0.003,0.0000
2024,6,20,11:51:57.803,-0.336,247,-0.9,0.0,0.1,-0.99,-0.10,-0.08,1.00000,-0.00013,0.00003,0.00000,0.003,0.0000
2024,6,20,11:51:57.803,-0.334,249,-0.3,-0.3,0.1,-0.98,-0.10,-0.06,1.00000,-0.00013,0.00003,0.00000,0.003,0.0000
2024,6,20,11:51:57.803,-0.332,1,-1.3,0.2,0.1,-1.00,-0.07,-0.10,1.00000,-0.00017,0.00003,0.00000,0.003,0.0000
2024,6,20,11:51:57.921,-0.330,3,-1.0,0.0,0.1,-0.97,-0.04,-0.10,1.00000,-0.00017,0.00003,0.00000,0.003,0.0000
2024,6,20,11:51:57.921,-0.328,5,-1.2,0.0,0.0,-1.00,-0.02,-0.07,1.00000,-0.00020,0.00003,0.00000,0.003,0.0000
2024,6,20,11:51:57.921,-0.326,7,-0.6,-0.3,0.0,-0.99,-0.11,-0.06,1.00000,-0.00020,0.00003,0.00000,0.003,0.0000
2024,6,20,11:51:57.921,-0.324,9,-0.5,-0.2,0.0,-0.98,-0.10,-0.05,1.00000,-0.00020,0.00003,0.00000,0.003,0.0000
2024,6,20,11:51:57.921,-0.322,11,-1.0,0.0,0.1,-1.01,-0.08,-0.09,1.00000,-0.00023,0.00000,0.00000,0.003,0.0000
2024,6,20,11:51:57.921,-0.320,13,-1.3,0.0,0.1,-1.00,-0.05,-0.11,1.00000,-0.00027,0.00000,0.00000,0.003,0.0000
2024,6,20,11:51:57.921,-0.318,15,-0.4,-0.3,0.0,-1.02,-0.08,-0.05,1.00000,-0.00027,0.00000,0.00000,0.003,0.0000
2024,6,20,11:51:57.921,-0.316,17,-1.1,0.0,0.1,-0.97,-0.08,-0.09,1.00000,-0.00027,0.00000,0.00000,0.003,0.0000
2024,6,20,11:51:57.921,-0.314,19,-0.8,0.0,0.0,-0.99,-0.09,-0.06,1.00000,-0.00030,0.00000,0.00000,0.003,0.0000
2024,6,20,11:51:57.980,-0.312,21,-0.9,0.0,0.0,-0.99,-0.10,-0.09,1.00000,-0.00030,0.00000,0.00000,0.003,0.0000
2024,6,20,11:51:57.980,-0.310,23,-0.7,0.0,0.0,-1.00,-0.05,-0.08,1.00000,-0.00033,0.00000,0.00000,0.003,0.0000
2024,6,20,11:51:57.980,-0.308,25,-0.2,-0.3,0.1,-0.99,-0.11,-0.08,1.00000,-0.00033,0.00000,0.00000,0.003,0.0000
2024,6,20,11:51:57.980,-0.306,27,0.0,-0.5,0.1,-0.98,-0.05,-0.08,1.00000,-0.00033,0.00000,0.00000,0.003,0.0000
2024,6,20,11:51:57.980,-0.304,29,-0.6,0.0,0.0,-0.97,-0.04,-0.06,1.00000,-0.00033,0.00000,0.00000,0.003,0.0000
2024,6,20,11:51:57.980,-0.302,31,-0.2,-0.1,0.0,-0.97,-0.07,-0.06,1.00000,-0.00033,0.00000,0.00000,0.003,0.0000
2024,6,20,11:51:57.980,-0.300,33,0.4,0.0,0.0,-1.01,-0.11,-0.07,1.00000,-0.00033,0.00000,0.00000,0.003,0.0000
2024,6,20,11:51:57.980,-0.298,35,0.0,0.0,0.0,-1.03,-0.08,-0.08,1.00000,-0.00033,0.00000,0.00000,0.003,0.0000
2024,6,20,11:51:57.980,-0.296,37,-0.6,0.3,0.0,-0.96,0.03,-0.09,1.00000,-0.00037,0.00000,0.00000,0.003,0.0000
2024,6,20,11:51:58.042,-0.294,39,0.2,-0.3,0.3,-0.94,0.01,-0.08,1.00000,-0.00033,0.00000,0.00000,0.003,0.0000
2024,6,20,11:51:58.042,-0.292,41,0.8,-0.3,-0.1,-1.06,-0.18,-0.03,1.00000,-0.00033,0.00000,0.00000,0.003,0.0000
2024,6,20,11:51:58.042,-0.290,43,1.2,-0.3,-0.2,-1.04,-0.23,-0.07,1.00000,-0.00030,0.00000,0.00000,0.003,0.0000
2024,6,20,11:51:58.042,-0.288,45,0.2,0.2,0.1,-0.97,0.00,-0.09,1.00000,-0.00030,0.00000,0.00000,0.003,0.0000
2024,6,20,11:51:58.042,-0.286,47,0.2,0.0,0.3,-0.97,0.08,-0.09,1.00000,-0.00030,0.00000,0.00000,0.003,0.0000
2024,6,20,11:51:58.042,-0.284,49,0.2,0.1,0.0,-0.99,-0.04,-0.09,1.00000,-0.00030,0.00000,0.00000,0.003,0.0000
2024,6,20,11:51:58.042,-0.282,51,0.9,0.0,0.0,-1.00,-0.17,-0.05,1.00000,-0.00027,0.00000,0.00000,0.003,0.0000
2024,6,20,11:51:58.042,-0.280,53,0.8,0.0,0.1,-1.00,-0.14,-0.06,1.00000,-0.00027,0.00000,0.00000,0.003,0.0000
2024,6,20,11:51:58.042,-0.278,55,0.1,0.2,0.1,-0.96,-0.03,-0.09,1.00000,-0.00027,0.00000,0.00000,0.003,0.0000
2024,6,20,11:51:58.102,-0.276,57,0.4,0.1,0.1,-1.00,-0.01,-0.06,1.00000,-0.00027,0.00000,0.00000,0.003,0.0000
2024,6,20,11:51:58.102,-0.274,59,0.7,0.1,0.0,-0.98,-0.09,-0.08,1.00000,-0.00023,0.00000,0.00000,0.003,0.0000
2024,6,20,11:51:58.102,-0.272,61,0.1,0.3,-0.1,-0.94,-0.07,-0.08,1.00000,-0.00023,0.00000,0.00000,0.003,0.0000
2024,6,20,11:51:58.102,-0.270,63,-0.1,0.5,-0.1,-1.01,-0.12,-0.08,1.00000,-0.00023,0.00000,0.00000,0.003,0.0000
2024,6,20,11:51:58.102,-0.268,65,0.0,0.4,-0.1,-1.00,-0.10,-0.08,1.00000,-0.00023,0.00000,0.00000,0.003,0.0000
2024,6,20,11:51:58.102,-0.266,67,0.9,-0.2,0.1,-0.99,-0.06,-0.06,1.00000,-0.00023,0.00000,0.00000,0.003,0.0000
2024,6,20,11:51:58.102,-0.264,69,0.7,0.0,0.1,-0.96,-0.07,-0.07,1.00000,-0.00020,0.00000,0.00000,0.003,0.0000
2024,6,20,11:51:58.102,-0.262,71,0.0,0.4,-0.1,-0.97,-0.04,-0.08,1.00000,-0.00023,0.00000,0.00000,0.003,0.0000
2024,6,20,11:51:58.102,-0.260,73,1.1,-0.3,0.0,-0.99,-0.07,-0.08,1.00000,-0.00020,0.00000,0.00000,0.003,0.0000
2024,6,20,11:51:58.162,-0.258,75,-0.1,0.5,0.0,-0.95,-0.04,-0.10,1.00000,-0.00020,0.00003,0.00000,0.003,0.0000
2024,6,20,11:51:58.162,-0.256,77,-0.4,0.4,0.0,-0.97,-0.05,-0.09,1.00000,0.00000,0.00000,0.00000,0.003,0.0000
2024,6,20,11:51:58.162,-0.254,79,0.4,0.2,-0.1,-1.00,-0.15,-0.08,1.00000,0.00000,0.00000,0.00000,0.003,0.0000
2024,6,20,11:51:58.162,-0.252,81,1.0,0.0,-0.1,-1.01,-0.09,-0.05,1.00000,0.00000,0.00000,0.00000,0.003,0.0000
2024,6,20,11:51:58.162,-0.250,83,0.2,0.1,-0.1,-1.00,0.00,-0.09,1.00000,0.00000,0.00000,0.00000,0.003,0.0000
2024,6,20,11:51:58.162,-0.248,85,0.6,0.0,0.0,-0.96,-0.01,-0.06,1.00000,0.00003,0.00000,0.00000,0.003,0.0000
2024,6,20,11:51:58.162,-0.246,87,0.9,-0.2,0.0,-0.99,-0.09,-0.05,1.00000,0.00003,0.00000,0.00000,0.003,0.0000
2024,6,20,11:51:58.162,-0.244,89,0.5,0.1,-0.3,-0.99,-0.14,-0.07,1.00000,0.00003,0.00000,0.00000,0.003,0.0000
2024,6,20,11:51:58.162,-0.242,91,0.0,0.3,-0.1,-0.97,-0.05,-0.08,1.00000,0.00003,0.00000,0.00000,0.003,0.0000
2024,6,20,11:51:58.280,-0.240,93,0.2,0.3,-0.1,-0.99,-0.02,-0.08,1.00000,0.00003,0.00000,0.00000,0.003,0.0000
2024,6,20,11:51:58.280,-0.238,95,0.5,0.0,0.1,-0.99,-0.09,-0.08,1.00000,0.00007,0.00000,0.00000,0.003,0.0000
2024,6,20,11:51:58.280,-0.236,97,0.3,0.1,-0.1,-0.98,-0.09,-0.09,1.00000,0.00007,0.00000,0.00000,0.003,0.0000
2024,6,20,11:51:58.280,-0.234,99,0.4,0.1,-0.2,-0.98,-0.16,-0.05,1.00000,0.00007,0.00000,0.00000,0.003,0.0000
2024,6,20,11:51:58.280,-0.232,101,0.4,0.2,-0.2,-1.00,-0.10,-0.04,1.00000,0.00007,0.00000,0.00000,0.003,0.0000
2024,6,20,11:51:58.280,-0.230,103,0.3,0.0,0.1,-0.98,0.00,-0.09,1.00000,0.00010,0.00000,0.00000,0.003,0.0000
2024,6,20,11:51:58.280,-0.228,105,0.4,0.0,0.0,-0.97,0.01,-0.09,1.00000,0.00010,0.00000,0.00000,0.003,0.0000
2024,6,20,11:51:58.280,-0.226,107,0.9,0.0,-0.1,-0.99,-0.07,-0.06,1.00000,0.00010,0.00000,0.00000,0.003,0.0000
2024,6,20,11:51:58.280,-0.224,109,0.0,0.3,-0.2,-1.02,-0.15,-0.08,1.00000,0.00010,0.00003,0.00000,0.003,0.0000
2024,6,20,11:51:58.340,-0.222,111,-0.6,0.6,-0.1,-0.98,-0.11,-0.08,1.00000,0.00010,0.00003,-0.00003,0.003,0.0000
2024,6,20,11:51:58.340,-0.220,113,0.3,0.0,0.0,-0.97,-0.08,-0.06,1.00000,0.00010,0.00003,-0.00003,0.003,0.0000
2024,6,20,11:51:58.340,-0.218,115,0.4,0.0,-0.1,-0.99,-0.08,-0.06,1.00000,0.00010,0.00003,-0.00003,0.003,0.0000
2024,6,20,11:51:58.340,-0.216,117,-0.5,0.3,-0.1,-0.96,-0.03,-0.09,1.00000,0.00010,0.00003,-0.00003,0.003,0.0000
2024,6,20,11:51:58.340,-0.214,119,-1.1,0.6,-0.2,-0.98,-0.01,-0.10,1.00000,0.00010,0.00003,-0.00003,0.003,0.0000
2024,6,20,11:51:58.340,-0.212,121,-0.4,0.4,-0.2,-1.01,-0.08,-0.08,1.00000,0.00007,0.00007,-0.00003,0.003,0.0000
2024,6,20,11:51:58.340,-0.210,123,0.6,-0.3,0.0,-0.98,-0.05,-0.07,1.00000,0.00010,0.00003,-0.00003,0.003,0.0000
2024,6,20,11:51:58.340,-0.208,125,0.0,0.1,-0.3,-0.99,-0.09,-0.07,1.00000,0.00010,0.00003,-0.00003,0.003,0.0000
2024,6,20,11:51:58.340,-0.206,127,0.1,0.0,-0.1,-1.00,-0.15,-0.09,1.00000,0.00010,0.00007,-0.00003,0.003,0.0000
2024,6,20,11:51:58.400,-0.204,129,0.2,0.0,0.0,-1.00,-0.09,-0.07,1.00000,0.00010,0.00003,-0.00003,0.003,0.0000
2024,6,20,11:51:58.400,-0.202,131,0.0,0.1,-0.1,-0.99,-0.05,-0.09,1.00000,0.00010,0.00007,-0.00003,0.003,0.0000
2024,6,20,11:51:58.400,-0.200,133,0.0,0.3,-0.1,-0.98,-0.04,-0.07,1.00000,0.00010,0.00007,-0.00003,0.003,0.0000
2024,6,20,11:51:58.400,-0.198,135,0.0,0.3,-0.2,-1.03,-0.10,-0.08,1.00000,0.00010,0.00007,-0.00007,0.003,0.0000
2024,6,20,11:51:58.400,-0.196,137,0.7,-0.2,0.0,-0.98,-0.06,-0.09,1.00000,0.00010,0.00007,-0.00007,0.003,0.0000
2024,6,20,11:51:58.400,-0.194,139,0.5,0.0,0.0,-0.99,-0.08,-0.09,1.00000,0.00013,0.00007,-0.00007,0.003,0.0000
2024,6,20,11:51:58.400,-0.192,141,0.3,0.1,0.0,-0.98,-0.04,-0.06,1.00000,0.00013,0.00007,-0.00007,0.003,0.0000
2024,6,20,11:51:58.400,-0.190,143,0.2,0.2,0.0,-0.99,-0.09,-0.08,1.00000,0.00013,0.00007,-0.00007,0.003,0.0000
2024,6,20,11:51:58.400,-0.188,145,0.7,0.2,-0.3,-1.00,-0.13,-0.06,1.00000,0.00013,0.00007,-0.00007,0.003,0.0000
2024,6,20,11:51:58.462,-0.186,147,0.4,0.1,-0.1,-1.01,-0.07,-0.06,1.00000,0.00017,0.00007,-0.00007,0.003,0.0000
2024,6,20,11:51:58.462,-0.184,149,0.0,0.5,-0.2,-1.05,-0.02,-0.07,1.00000,0.00017,0.00010,-0.00007,0.003,0.0000
2024,6,20,11:51:58.462,-0.182,151,1.0,0.0,0.0,-1.08,-0.03,-0.05,1.00000,0.00017,0.00007,-0.00007,0.003,0.0000
2024,6,20,11:51:58.462,-0.180,153,0.0,0.8,-0.4,-1.10,-0.15,-0.12,1.00000,0.00017,0.00010,-0.00007,0.003,0.0000
2024,6,20,11:51:58.462,-0.178,155,1.9,-0.6,0.0,-1.03,-0.06,-0.04,1.00000,0.00020,0.00010,-0.00007,0.003,0.0000
2024,6,20,11:51:58.462,-0.176,157,2.1,-1.0,0.3,-1.12,0.00,-0.04,1.00000,0.00023,0.00007,-0.00007,0.003,0.0000
2024,6,20,11:51:58.462,-0.174,159,0.6,0.5,-0.1,-0.83,-0.06,0.05,1.00000,0.00027,0.00007,-0.00007,0.003,0.0000
2024,6,20,11:51:58.462,-0.172,161,-2.0,2.5,-0.7,-0.82,-0.07,-0.13,1.00000,0.00023,0.00013,-0.00007,0.003,0.0000
2024,6,20,11:51:58.462,-0.170,163,-3.7,3.4,-1.0,-1.24,-0.37,-0.13,1.00000,0.00017,0.00017,-0.00010,0.003,0.0000
2024,6,20,11:51:58.580,-0.168,165,6.8,-3.9,1.2,-0.53,0.19,0.07,1.00000,0.00027,0.00010,-0.00007,0.002,0.0000
2024,6,20,11:51:58.580,-0.166,167,6.1,-4.9,1.4,-0.93,0.21,-0.09,1.00000,0.00037,0.00003,-0.00007,0.003,0.0000
2024,6,20,11:51:58.580,-0.164,169,-6.1,3.4,-1.2,-1.40,-0.22,-0.05,1.00000,0.00027,0.00010,-0.00007,0.003,0.0000
2024,6,20,11:51:58.580,-0.162,171,-13.7,9.7,-2.5,-1.68,-0.15,-0.26,1.00000,0.00003,0.00027,-0.00013,0.003,0.0000
2024,6,20,11:51:58.580,-0.160,173,11.7,-7.5,1.9,-1.53,-0.10,0.20,1.00000,0.00023,0.00013,-0.00010,0.003,0.0000
2024,6,20,11:51:58.580,-0.158,175,5.3,-3.3,1.5,-1.64,0.10,0.15,1.00000,0.00033,0.00007,-0.00007,0.003,0.0000
2024,6,20,11:51:58.580,-0.156,177,9.6,-12.9,4.0,-2.60,0.31,0.48,0.99997,0.00050,-0.00013,0.00000,0.003,0.0000
2024,6,20,11:51:58.580,-0.154,179,-15.1,3.8,-0.1,-3.67,-0.17,0.00,1.00000,0.00023,-0.00007,0.00000,0.003,0.0000
2024,6,20,11:51:58.580,-0.152,181,-17.8,8.6,-3.1,-5.13,-0.21,0.10,1.00000,-0.00003,0.00007,-0.00003,0.003,0.0000
2024,6,20,11:51:58.701,-0.150,183,12.7,-9.9,0.7,-6.53,-0.27,0.60,1.00000,0.00013,-0.00010,-0.00003,0.003,0.0000
2024,6,20,11:51:58.701,-0.148,185,5.7,-1.7,-6.4,-4.90,0.68,0.43,1.00000,0.00023,-0.00010,-0.00013,0.003,0.0000
2024,6,20,11:51:58.701,-0.146,187,-18.9,10.8,-1.4,-6.76,-0.66,-0.78,1.00000,-0.00007,0.00003,-0.00017,0.003,0.0000
2024,6,20,11:51:58.701,-0.144,189,-5.8,1.0,-1.9,-6.57,-0.94,0.17,1.00000,-0.00017,0.00007,-0.00020,0.003,0.0000
2024,6,20,11:51:58.701,-0.142,191,9.3,-14.7,0.5,-6.47,0.07,1.23,1.00000,0.00000,-0.00017,-0.00020,0.003,0.0000
2024,6,20,11:51:58.701,-0.140,193,-12.0,11.5,-3.9,-9.01,-0.42,-1.65,1.00000,-0.00020,0.00000,-0.00027,0.003,0.0000
2024,6,20,11:51:58.701,-0.138,195,-36.3,21.6,-12.2,-7.18,1.11,0.37,0.99997,-0.00083,0.00037,-0.00047,0.003,0.0000
2024,6,20,11:51:58.701,-0.136,197,33.6,-18.9,4.7,-7.74,-0.97,0.04,0.99997,-0.00023,0.00003,-0.00040,0.003,0.0000
2024,6,20,11:51:58.701,-0.134,199,-4.8,-9.6,4.0,-7.42,-0.43,0.08,0.99997,-0.00033,-0.00010,-0.00033,0.003,0.0000
2024,6,20,11:51:58.760,-0.132,201,-23.0,5.2,-2.2,-8.67,-1.21,0.40,0.99997,-0.00073,0.00000,-0.00037,0.003,0.0000
2024,6,20,11:51:58.760,-0.130,203,19.6,-16.7,-1.9,-8.11,-1.54,-0.23,0.99997,-0.00040,-0.00030,-0.00040,0.003,0.0000
2024,6,20,11:51:58.760,-0.128,205,-2.8,3.5,-3.5,-8.90,-0.55,0.61,0.99997,-0.00043,-0.00023,-0.00047,0.003,0.0000
2024,6,20,11:51:58.760,-0.126,207,0.5,0.3,1.9,-8.98,0.16,-0.70,0.99997,-0.00043,-0.00023,-0.00043,0.003,0.0000
2024,6,20,11:51:58.760,-0.124,209,-22.1,8.3,-2.3,-9.28,0.46,-0.63,0.99997,-0.00083,-0.00007,-0.00047,0.003,0.0000
2024,6,20,11:51:58.760,-0.122,211,6.0,-5.7,-0.8,-10.40,-1.40,0.97,0.99997,-0.00070,-0.00017,-0.00047,0.003,0.0000
2024,6,20,11:51:58.760,-0.120,213,-14.0,-1.3,1.2,-9.67,-0.22,0.17,0.99997,-0.00097,-0.00020,-0.00047,0.003,0.0000
2024,6,20,11:51:58.760,-0.118,215,-2.7,-8.0,0.0,-10.53,-1.16,-0.22,0.99997,-0.00100,-0.00033,-0.00047,0.003,0.0000
2024,6,20,11:51:58.760,-0.116,217,-11.8,-5.9,1.2,-9.28,-0.51,-0.48,0.99997,-0.00123,-0.00043,-0.00043,0.003,0.0000
2024,6,20,11:51:58.820,-0.114,219,-0.2,-9.9,-0.3,-10.92,-0.22,-0.13,0.99997,-0.00123,-0.00063,-0.00043,0.003,0.0000
2024,6,20,11:51:58.820,-0.112,221,-12.0,0.0,5.4,-10.67,-0.39,-0.03,0.99997,-0.00143,-0.00063,-0.00033,0.003,0.0000
2024,6,20,11:51:58.820,-0.110,223,-27.4,9.9,1.1,-10.27,0.46,-0.10,0.99997,-0.00190,-0.00043,-0.00033,0.003,0.0000
2024,6,20,11:51:58.820,-0.108,225,10.9,-12.7,-0.8,-10.37,-0.70,0.36,0.99997,-0.00173,-0.00067,-0.00033,0.003,0.0000
2024,6,20,11:51:58.820,-0.106,227,-3.5,3.5,-7.1,-10.76,-0.34,-0.31,0.99997,-0.00177,-0.00060,-0.00047,0.003,0.0000
2024,6,20,11:51:58.820,-0.104,229,2.4,-2.8,5.0,-10.58,-0.73,0.56,0.99997,-0.00173,-0.00067,-0.00037,0.003,0.0000
2024,6,20,11:51:58.820,-0.102,231,-10.2,-2.8,5.7,-10.45,0.11,0.51,0.99997,-0.00193,-0.00070,-0.00027,0.003,0.0000
2024,6,20,11:51:58.820,-0.100,233,-14.4,-7.8,6.4,-10.31,0.28,0.57,0.99997,-0.00217,-0.00083,-0.00017,0.003,0.0000
2024,6,20,11:51:58.820,-0.098,235,-15.0,-2.8,-1.9,-10.82,0.08,-0.04,0.99997,-0.00243,-0.00090,-0.00020,0.003,0.0000
2024,6,20,11:51:58.880,-0.096,237,-15.0,5.0,-4.5,-10.73,-0.16,-0.29,0.99997,-0.00270,-0.00080,-0.00027,0.003,0.0000
2024,6,20,11:51:58.880,-0.094,239,-7.9,-1.8,-0.7,-10.14,0.00,0.17,0.99997,-0.00283,-0.00083,-0.00030,0.003,0.0000
2024,6,20,11:51:58.880,-0.092,241,-21.1,-1.6,0.0,-10.42,-0.47,0.18,0.99997,-0.00320,-0.00087,-0.00030,0.003,0.0000
2024,6,20,11:51:58.880,-0.090,243,-20.1,-5.2,1.3,-10.45,-0.45,0.36,0.99997,-0.00357,-0.00097,-0.00027,0.003,0.0000
2024,6,20,11:51:58.880,-0.088,245,-32.4,1.7,0.1,-11.60,0.30,0.11,0.99997,-0.00413,-0.00093,-0.00027,0.003,0.0000
2024,6,20,11:51:58.880,-0.086,247,-34.4,14.4,-2.7,-11.27,-0.86,-0.30,0.99997,-0.00473,-0.00067,-0.00030,0.003,0.0000
2024,6,20,11:51:58.880,-0.084,249,-0.8,-7.1,-1.4,-11.38,0.00,0.89,0.99997,-0.00473,-0.00080,-0.00033,0.003,0.0000
2024,6,20,11:51:58.880,-0.082,1,-12.5,-6.2,1.9,-11.16,0.26,0.62,0.99997,-0.00497,-0.00090,-0.00030,0.003,0.0000
2024,6,20,11:51:58.880,-0.080,3,-35.9,8.1,-1.0,-12.06,-0.94,-0.05,0.99997,-0.00560,-0.00077,-0.00033,0.003,0.0000
2024,6,20,11:51:58.940,-0.078,5,-42.2,5.0,0.3,-11.72,-0.53,0.30,0.99997,-0.00633,-0.00067,-0.00033,0.003,0.0000
2024,6,20,11:51:58.940,-0.076,7,-20.6,-1.7,1.3,-11.60,-0.70,-0.60,0.99997,-0.00667,-0.00070,-0.00030,0.003,0.0000
2024,6,20,11:51:58.940,-0.074,9,-39.4,3.0,0.0,-11.52,0.40,-0.12,0.99997,-0.00737,-0.00067,-0.00030,0.003,0.0000
2024,6,20,11:51:58.940,-0.072,11,-26.7,-3.1,-0.3,-11.74,0.11,-0.18,0.99997,-0.00783,-0.00070,-0.00030,0.003,0.0000
2024,6,20,11:51:58.940,-0.070,13,-18.1,-0.5,0.8,-11.94,-0.12,0.24,0.99993,-0.00817,-0.00073,-0.00030,0.003,0.0000
2024,6,20,11:51:58.940,-0.068,15,-16.3,3.0,-1.1,-11.86,-0.10,-0.12,0.99993,-0.00843,-0.00067,-0.00030,0.003,0.0000
2024,6,20,11:51:58.940,-0.066,17,-10.9,3.3,1.4,-11.53,0.04,0.22,0.99993,-0.00863,-0.00060,-0.00030,0.003,0.0000
2024,6,20,11:51:58.940,-0.064,19,-17.0,-6.0,-0.3,-11.35,-0.22,0.37,0.99993,-0.00893,-0.00070,-0.00030,0.003,0.0000
2024,6,20,11:51:58.940,-0.062,21,-18.1,-5.1,-0.3,-12.04,-1.03,0.08,0.99993,-0.00923,-0.00080,-0.00030,0.003,0.0000
2024,6,20,11:51:59.061,-0.060,23,-32.1,0.0,-1.2,-11.99,-0.26,0.15,0.99993,-0.00980,-0.00080,-0.00030,0.003,0.0000
2024,6,20,11:51:59.061,-0.058,25,-23.3,-4.2,0.2,-11.82,-0.51,0.30,0.99993,-0.01020,-0.00087,-0.00030,0.003,0.0000
2024,6,20,11:51:59.061,-0.056,27,-29.4,3.5,-3.3,-12.02,-0.37,0.63,0.99993,-0.01073,-0.00083,-0.00037,0.003,0.0000
2024,6,20,11:51:59.061,-0.054,29,-27.9,2.4,-2.0,-12.14,-0.62,-0.37,0.99993,-0.01120,-0.00077,-0.00040,0.003,0.0000
2024,6,20,11:51:59.061,-0.052,31,-13.1,-4.7,2.2,-11.81,-0.38,0.20,0.99993,-0.01143,-0.00087,-0.00037,0.003,0.0000
2024,6,20,11:51:59.061,-0.050,33,-14.0,-8.4,2.9,-11.84,-0.25,-0.42,0.99990,-0.01170,-0.00100,-0.00030,0.003,0.0000
2024,6,20,11:51:59.061,-0.048,35,-32.3,3.9,-3.2,-11.98,-1.10,-0.03,0.99990,-0.01227,-0.00093,-0.00037,0.003,0.0000
2024,6,20,11:51:59.061,-0.046,37,-22.8,-6.9,-0.5,-11.62,-0.60,0.68,0.99990,-0.01267,-0.00107,-0.00037,0.003,0.0000
2024,6,20,11:51:59.061,-0.044,39,-25.1,-8.3,-0.6,-11.66,-0.29,0.46,0.99990,-0.01310,-0.00120,-0.00040,0.003,0.0000
2024,6,20,11:51:59.119,-0.042,41,-32.1,1.8,-1.0,-11.95,-0.44,-0.13,0.99990,-0.01367,-0.00117,-0.00040,0.003,0.0000
2024,6,20,11:51:59.119,-0.040,43,-36.8,2.1,-3.0,-11.94,-0.29,0.00,0.99987,-0.01430,-0.00113,-0.00047,0.003,0.0000
2024,6,20,11:51:59.120,-0.038,45,-27.4,0.6,1.9,-11.80,-0.39,0.14,0.99987,-0.01477,-0.00113,-0.00043,0.003,0.0000
2024,6,20,11:51:59.120,-0.036,47,-31.5,-4.4,0.8,-12.00,-0.70,0.08,0.99987,-0.01533,-0.00120,-0.00043,0.003,0.0000
2024,6,20,11:51:59.120,-0.034,49,-41.7,4.1,-1.7,-11.86,-0.27,0.09,0.99987,-0.01607,-0.00113,-0.00047,0.003,0.0000
2024,6,20,11:51:59.120,-0.032,51,-42.5,-1.1,-2.3,-11.96,0.01,0.00,0.99983,-0.01680,-0.00113,-0.00050,0.003,0.0000
2024,6,20,11:51:59.120,-0.030,53,-48.9,4.5,-0.7,-12.01,-0.61,-0.14,0.99983,-0.01767,-0.00107,-0.00050,0.003,0.0000
2024,6,20,11:51:59.120,-0.028,55,-43.8,-0.5,0.2,-11.66,0.28,0.23,0.99980,-0.01843,-0.00107,-0.00050,0.003,0.0000
2024,6,20,11:51:59.120,-0.026,57,-42.1,-1.5,-0.4,-11.85,-0.24,0.21,0.99980,-0.01917,-0.00110,-0.00050,0.003,0.0000
2024,6,20,11:51:59.180,-0.024,59,-43.4,-0.6,-2.4,-11.98,-0.45,-0.13,0.99980,-0.01990,-0.00110,-0.00057,0.003,0.0000
2024,6,20,11:51:59.180,-0.022,61,-36.4,-3.7,-1.7,-11.84,-0.45,0.11,0.99977,-0.02053,-0.00117,-0.00060,0.003,0.0000
2024,6,20,11:51:59.180,-0.020,63,-40.1,-1.2,-0.8,-11.69,-0.60,0.65,0.99977,-0.02123,-0.00120,-0.00060,0.003,0.0000
2024,6,20,11:51:59.180,-0.018,65,-44.5,1.8,1.0,-11.94,-0.38,0.31,0.99973,-0.02203,-0.00117,-0.00060,0.003,0.0000
2024,6,20,11:51:59.180,-0.016,67,-51.1,2.7,-1.4,-11.80,-0.03,0.02,0.99973,-0.02293,-0.00113,-0.00060,0.003,0.0000
2024,6,20,11:51:59.180,-0.014,69,-44.4,-3.1,0.8,-11.71,-0.10,-0.02,0.99970,-0.02370,-0.00117,-0.00060,0.003,0.0000
2024,6,20,11:51:59.180,-0.012,71,-38.5,-7.8,-0.3,-11.61,-0.09,0.07,0.99970,-0.02437,-0.00130,-0.00060,0.003,0.0000
2024,6,20,11:51:59.180,-0.010,73,-47.3,0.2,0.5,-12.01,-0.31,-0.66,0.99967,-0.02520,-0.00130,-0.00060,0.003,0.0000
2024,6,20,11:51:59.180,-0.008,75,-47.7,11.1,-0.9,-11.70,-0.14,-0.03,0.99963,-0.02603,-0.00110,-0.00060,0.003,0.0000
2024,6,20,11:51:59.242,-0.006,77,-27.5,-1.2,-0.8,-11.66,-0.48,0.16,0.99963,-0.02650,-0.00113,-0.00063,0.003,0.0000
2024,6,20,11:51:59.242,-0.004,79,-40.5,-3.0,1.1,-11.46,0.14,0.00,0.99960,-0.02720,-0.00120,-0.00060,0.003,0.0000
2024,6,20,11:51:59.242,-0.002,81,-52.9,-6.0,-1.5,-11.45,0.05,0.57,0.99960,-0.02813,-0.00130,-0.00063,0.003,0.0000
2024,6,20,11:51:59.242,0.000,83,-47.2,-10.1,1.3,-11.75,-1.17,0.79,0.99957,-0.02897,-0.00147,-0.00060,0.003,0.0000
2024,6,20,11:51:59.242,0.002,85,-55.5,3.3,-2.9,-11.59,-0.33,0.18,0.99953,-0.02993,-0.00140,-0.00067,0.003,0.0000
2024,6,20,11:51:59.242,0.004,87,-42.4,2.0,-2.6,-11.63,-1.22,-0.52,0.99950,-0.03067,-0.00137,-0.00070,0.003,0.0000
2024,6,20,11:51:59.242,0.006,89,-44.4,5.8,-4.9,-12.06,-0.67,0.12,0.99950,-0.03143,-0.00127,-0.00080,0.003,0.0000
2024,6,20,11:51:59.242,0.008,91,-48.4,-1.4,-0.9,-11.35,-0.04,-0.14,0.99947,-0.03230,-0.00130,-0.00080,0.003,0.0000
2024,6,20,11:51:59.242,0.010,93,-55.5,-1.2,0.6,-11.84,0.04,-0.44,0.99943,-0.03327,-0.00133,-0.00080,0.003,0.0000
2024,6,20,11:51:59.300,0.012,95,-65.7,13.2,-2.4,-11.71,-0.01,0.19,0.99940,-0.03440,-0.00110,-0.00087,0.003,0.0000
2024,6,20,11:51:59.300,0.014,97,-42.8,-3.4,-1.7,-11.37,-0.38,0.56,0.99937,-0.03513,-0.00117,-0.00090,0.003,0.0000
2024,6,20,11:51:59.300,0.016,99,-61.2,1.8,-3.7,-11.66,-0.28,-0.07,0.99933,-0.03623,-0.00113,-0.00097,0.001,0.0000
2024,6,20,11:51:59.300,0.018,101,-56.0,-2.4,2.4,-11.47,-0.56,-0.62,0.99930,-0.03720,-0.00117,-0.00090,0.003,0.0000
2024,6,20,11:51:59.300,0.020,103,-54.0,-1.8,0.5,-11.17,-0.15,0.18,0.99927,-0.03813,-0.00120,-0.00090,0.003,0.0000
2024,6,20,11:51:59.300,0.022,105,-60.9,1.6,-3.1,-11.43,-0.50,0.22,0.99920,-0.03920,-0.00117,-0.00097,0.003,0.0000
2024,6,20,11:51:59.300,0.024,107,-63.9,7.1,-4.7,-11.26,-0.48,0.34,0.99917,-0.04030,-0.00103,-0.00103,0.003,0.0000
2024,6,20,11:51:59.300,0.026,109,-46.5,3.0,-3.8,-11.77,-0.64,0.86,0.99913,-0.04113,-0.00100,-0.00113,0.003,0.0000
2024,6,20,11:51:59.300,0.028,111,-42.4,-1.2,-2.3,-11.49,-0.39,-0.03,0.99910,-0.04187,-0.00100,-0.00117,0.003,0.0000
2024,6,20,11:51:59.422,0.030,113,-42.0,-1.1,-1.9,-11.34,-0.44,-0.61,0.99907,-0.04260,-0.00103,-0.00120,0.003,0.0000
2024,6,20,11:51:59.422,0.032,115,-60.2,5.5,-3.8,-11.31,0.00,-0.15,0.99903,-0.04367,-0.00093,-0.00127,0.003,0.0000
2024,6,20,11:51:59.422,0.034,117,-59.4,3.9,-4.6,-10.98,-0.43,0.10,0.99897,-0.04470,-0.00087,-0.00137,0.003,0.0000
2024,6,20,11:51:59.422,0.036,119,-48.2,-4.0,-1.6,-11.20,-0.39,-0.44,0.99893,-0.04553,-0.00093,-0.00137,0.007,0.0000
2024,6,20,11:51:59.422,0.038,121,-49.0,4.8,-2.5,-12.02,-0.52,-0.77,0.99890,-0.04640,-0.00087,-0.00143,0.001,0.0000
2024,6,20,11:51:59.422,0.040,123,-46.6,6.2,-6.2,-11.79,-1.30,0.17,0.99887,-0.04720,-0.00077,-0.00153,0.003,0.0000
2024,6,20,11:51:59.422,0.042,125,-27.5,-6.1,1.1,-11.21,-0.43,0.69,0.99883,-0.04767,-0.00087,-0.00153,0.003,0.0000
2024,6,20,11:51:59.422,0.044,127,-38.4,-1.8,-2.0,-10.99,-0.34,0.00,0.99880,-0.04837,-0.00090,-0.00157,0.003,0.0000
2024,6,20,11:51:59.422,0.046,129,-44.0,-1.2,-3.6,-11.30,-0.67,0.04,0.99877,-0.04913,-0.00090,-0.00160,0.003,0.0000
2024,6,20,11:51:59.480,0.048,131,-33.4,-6.7,-2.4,-11.16,-0.27,0.43,0.99873,-0.04970,-0.00103,-0.00167,0.003,0.0000
2024,6,20,11:51:59.480,0.050,133,-50.7,1.0,0.0,-11.58,0.44,0.86,0.99870,-0.05060,-0.00100,-0.00167,0.003,0.0000
2024,6,20,11:51:59.480,0.052,135,-44.0,-0.9,2.4,-11.50,-0.12,1.11,0.99867,-0.05137,-0.00103,-0.00160,0.003,0.0000
2024,6,20,11:51:59.480,0.054,137,-29.7,-2.0,2.9,-11.60,-0.73,0.50,0.99863,-0.05187,-0.00107,-0.00157,0.003,0.0000
2024,6,20,11:51:59.480,0.056,139,-40.7,5.5,-3.4,-11.62,-0.40,-0.84,0.99860,-0.05257,-0.00097,-0.00163,0.003,0.0000
2024,6,20,11:51:59.480,0.058,141,-43.0,4.3,-4.2,-11.65,-1.01,-1.04,0.99857,-0.05333,-0.00090,-0.00170,0.007,0.0000
2024,6,20,11:51:59.480,0.060,143,-27.8,-13.3,4.0,-11.05,0.48,0.60,0.99853,-0.05383,-0.00113,-0.00163,0.003,0.0000
2024,6,20,11:51:59.480,0.062,145,-53.8,-2.5,1.7,-11.17,1.13,1.14,0.99847,-0.05477,-0.00117,-0.00160,0.002,0.0000
2024,6,20,11:51:59.480,0.064,147,-23.1,-11.5,1.6,-11.41,-0.58,0.45,0.99847,-0.05517,-0.00137,-0.00157,0.003,0.0000
2024,6,20,11:51:59.540,0.066,149,-43.3,7.4,-4.0,-11.63,0.27,0.69,0.99840,-0.05590,-0.00123,-0.00163,0.003,0.0000
2024,6,20,11:51:59.540,0.068,151,-38.4,-2.6,-0.6,-11.32,-0.86,-0.19,0.99837,-0.05660,-0.00127,-0.00163,0.003,0.0000
2024,6,20,11:51:59.540,0.070,153,-45.7,-2.2,2.6,-11.82,-0.26,0.24,0.99833,-0.05740,-0.00130,-0.00160,0.003,0.0000
2024,6,20,11:51:59.540,0.072,155,-44.8,2.1,-0.7,-11.50,-0.60,0.20,0.99830,-0.05817,-0.00127,-0.00160,0.003,0.0000
2024,6,20,11:51:59.540,0.074,157,-26.5,-7.7,0.6,-11.71,-0.50,0.46,0.99827,-0.05863,-0.00140,-0.00160,0.003,0.0000
2024,6,20,11:51:59.540,0.076,159,-21.6,-4.2,-0.4,-11.65,0.14,0.74,0.99823,-0.05900,-0.00150,-0.00160,0.003,0.0000
2024,6,20,11:51:59.540,0.078,161,-27.1,2.9,0.8,-11.16,-0.77,-0.94,0.99820,-0.05947,-0.00143,-0.00160,0.003,0.0000
2024,6,20,11:51:59.540,0.080,163,-29.3,3.6,-0.2,-11.57,-0.78,-0.06,0.99817,-0.06000,-0.00137,-0.00160,0.003,0.0000
2024,6,20,11:51:59.540,0.082,165,-38.4,3.9,-2.7,-11.57,-1.49,-0.43,0.99813,-0.06067,-0.00130,-0.00163,0.011,0.0000
2024,6,20,11:51:59.602,0.084,167,-24.7,-3.0,1.9,-10.89,0.27,-0.17,0.99810,-0.06110,-0.00137,-0.00160,0.002,0.0000
2024,6,20,11:51:59.602,0.086,169,-9.9,-8.9,1.8,-11.41,0.53,-0.51,0.99810,-0.06127,-0.00150,-0.00157,0.003,0.0000
2024,6,20,11:51:59.602,0.088,171,-29.8,9.0,-0.5,-11.38,-0.16,-0.43,0.99807,-0.06180,-0.00133,-0.00160,0.003,0.0000
2024,6,20,11:51:59.602,0.090,173,-9.7,-1.9,2.6,-11.57,-0.77,0.02,0.99807,-0.06197,-0.00137,-0.00153,0.003,0.0000
2024,6,20,11:51:59.602,0.092,175,-26.3,3.0,0.5,-11.86,0.01,0.42,0.99803,-0.06240,-0.00133,-0.00153,0.003,0.0000
2024,6,20,11:51:59.602,0.094,177,-29.0,1.5,3.1,-11.70,-1.07,0.13,0.99800,-0.06293,-0.00130,-0.00147,0.003,0.0000
2024,6,20,11:51:59.602,0.096,179,-23.0,-1.2,3.5,-11.86,-0.29,-0.13,0.99797,-0.06333,-0.00130,-0.00143,0.003,0.0000
2024,6,20,11:51:59.602,0.098,181,-26.3,-0.4,2.3,-11.36,0.24,-0.43,0.99793,-0.06377,-0.00130,-0.00137,0.003,0.0000
2024,6,20,11:51:59.602,0.100,183,-26.1,-3.1,4.2,-11.20,0.90,-0.21,0.99790,-0.06423,-0.00137,-0.00130,0.003,0.0000
2024,6,20,11:51:59.663,0.102,185,-26.1,-3.2,4.3,-12.14,-0.13,-0.23,0.99790,-0.06470,-0.00143,-0.00123,0.000,0.0000
2024,6,20,11:51:59.663,0.104,187,-49.4,19.1,1.9,-11.85,-0.27,0.04,0.99783,-0.06553,-0.00107,-0.00120,0.009,0.0000
2024,6,20,11:51:59.663,0.106,189,-19.8,4.5,3.6,-11.48,0.03,0.53,0.99780,-0.06590,-0.00100,-0.00117,0.003,0.0000
2024,6,20,11:51:59.663,0.108,191,-36.9,-0.8,4.0,-11.70,0.09,0.14,0.99777,-0.06653,-0.00100,-0.00110,0.003,0.0000
2024,6,20,11:51:59.663,0.110,193,-59.0,-5.9,5.0,-11.21,0.05,0.42,0.99770,-0.06757,-0.00110,-0.00100,0.003,0.0000
2024,6,20,11:51:59.663,0.112,195,-56.7,-5.5,6.3,-11.76,-0.13,-0.23,0.99763,-0.06857,-0.00120,-0.00087,0.003,0.0000
2024,6,20,11:51:59.663,0.114,197,-68.7,6.9,1.7,-12.02,-0.11,0.78,0.99753,-0.06977,-0.00107,-0.00087,0.003,0.0000
2024,6,20,11:51:59.663,0.116,199,-35.9,-0.3,0.8,-11.38,-1.20,0.73,0.99750,-0.07037,-0.00107,-0.00083,0.003,0.0000
