Year,Month,Day,Time,Flight_Time_(s),Sync,Gyro_X,Gyro_Y,Gyro_Z,Accel_X,Accel_Y,Accel_Z,Quat_1,Quat_2,Quat_3,Quat_4,Aux_Volts,Current
2024,12,8,13:25:57.700,-2.026,192,0.0,0.1,0.0,-1.00,0.02,0.01,1.00000,0.00003,0.00003,0.00000,0.047,0.0060
2024,12,8,13:25:57.702,-2.024,194,0.0,0.1,-0.2,-1.00,0.03,0.01,1.00000,0.00003,0.00003,0.00000,0.047,0.0040
2024,12,8,13:25:57.704,-2.022,196,0.0,0.0,0.0,-1.00,0.02,0.00,1.00000,0.00003,0.00003,0.00000,0.047,0.0090
2024,12,8,13:25:57.706,-2.020,198,0.0,0.0,0.0,-0.99,0.02,0.01,1.00000,0.00003,0.00003,0.00000,0.047,0.0140
2024,12,8,13:25:57.708,-2.018,200,-0.1,0.0,0.0,-1.00,0.03,0.00,1.00000,0.00003,0.00003,0.00000,0.047,0.0090
2024,12,8,13:25:57.710,-2.016,202,-0.1,0.0,0.0,-0.99,0.03,0.01,1.00000,0.00003,0.00003,0.00000,0.047,0.0060
2024,12,8,13:25:57.712,-2.014,204,-0.1,0.0,0.0,-1.00,0.02,0.01,1.00000,0.00003,0.00003,0.00000,0.047,0.0090
2024,12,8,13:25:57.714,-2.012,206,0.0,-0.1,0.0,-1.00,0.03,0.01,1.00000,0.00003,0.00003,0.00000,0.047,0.0070
2024,12,8,13:25:57.716,-2.010,208,-0.1,0.0,0.1,-0.99,0.02,0.00,1.00000,0.00003,0.00003,0.00000,0.048,0.0170
2024,12,8,13:25:57.718,-2.008,210,-0.1,0.0,0.0,-0.99,0.03,0.00,1.00000,0.00003,0.00003,0.00000,0.047,0.0110
2024,12,8,13:25:57.720,-2.006,212,0.0,0.0,0.0,-0.99,0.02,0.00,1.00000,0.00003,0.00003,0.00000,0.047,0.0140
2024,12,8,13:25:57.722,-2.004,214,-0.1,0.0,0.0,-1.00,0.02,0.00,1.00000,0.00003,0.00003,0.00000,0.047,0.0060
2024,12,8,13:25:57.724,-2.002,216,-0.1,0.0,0.0,-0.99,0.02,0.00,1.00000,0.00003,0.00003,0.00000,0.047,0.0030
2024,12,8,13:25:57.726,-2.000,218,0.0,0.0,0.1,-0.99,0.03,0.00,1.00000,0.00003,0.00003,0.00000,0.047,0.0110
2024,12,8,13:25:57.728,-1.998,220,-0.1,0.0,0.0,-0.99,0.02,0.00,1.00000,0.00003,0.00003,0.00000,0.047,0.0070
2024,12,8,13:25:57.730,-1.996,222,0.0,0.0,0.0,-0.99,0.03,0.01,1.00000,0.00003,0.00003,0.00000,0.047,0.0070
2024,12,8,13:25:57.732,-1.994,224,0.0,0.0,0.0,-0.99,0.03,0.00,1.00000,0.00003,0.00003,0.00000,0.047,0.0060
2024,12,8,13:25:57.734,-1.992,226,0.0,0.0,0.1,-0.99,0.02,0.01,1.00000,0.00003,0.00000,0.00000,0.047,0.0120
2024,12,8,13:25:57.736,-1.990,228,0.0,-0.1,0.0,-0.99,0.02,0.01,1.00000,0.00003,0.00000,0.00000,0.047,0.0070
2024,12,8,13:25:57.738,-1.988,230,0.0,0.0,-0.1,-0.99,0.03,0.02,1.00000,0.00003,0.00000,0.00000,0.047,0.0060
2024,12,8,13:25:57.740,-1.986,232,0.0,0.0,0.0,-0.99,0.03,0.00,1.00000,0.00003,0.00000,0.00000,0.047,0.0060
2024,12,8,13:25:57.742,-1.984,234,0.0,-0.2,0.0,-0.99,0.03,0.02,1.00000,0.00003,0.00000,0.00000,0.047,0.0110
2024,12,8,13:25:57.744,-1.982,236,0.0,0.0,0.0,-0.99,0.03,0.01,1.00000,0.00003,0.00000,0.00000,0.047,0.0060
2024,12,8,13:25:57.746,-1.980,238,0.1,0.0,0.0,-1.00,0.02,0.01,1.00000,0.00003,0.00000,0.00000,0.047,0.0060
2024,12,8,13:25:57.748,-1.978,240,0.0,0.0,0.0,-0.99,0.02,0.01,1.00000,0.00003,0.00000,0.00000,0.047,0.0060
2024,12,8,13:25:57.750,-1.976,242,0.0,0.0,0.0,-0.99,0.02,0.01,1.00000,0.00003,0.00000,0.00000,0.047,0.0070
2024,12,8,13:25:57.752,-1.974,244,0.0,0.0,0.0,-0.99,0.03,0.00,1.00000,0.00003,0.00000,0.00000,0.047,0.0070
2024,12,8,13:25:57.754,-1.972,246,0.1,-0.2,0.0,-1.00,0.03,0.01,1.00000,0.00003,0.00000,0.00000,0.047,0.0120
2024,12,8,13:25:57.756,-1.970,248,0.1,0.0,0.0,-1.00,0.02,0.00,1.00000,0.00003,0.00000,0.00000,0.047,0.0110
2024,12,8,13:25:57.758,-1.968,0,0.0,0.0,0.0,-1.00,0.01,0.02,1.00000,0.00003,0.00000,0.00000,0.047,0.0060
2024,12,8,13:25:57.760,-1.966,2,0.0,0.0,0.0,-1.00,0.03,0.00,1.00000,0.00003,0.00000,0.00000,0.047,0.0090
2024,12,8,13:25:57.762,-1.964,4,-0.1,0.0,0.0,-1.00,0.03,0.02,1.00000,0.00003,0.00000,0.00000,0.047,0.0110
2024,12,8,13:25:57.764,-1.962,6,0.0,0.0,0.0,-0.99,0.02,0.00,1.00000,0.00003,0.00000,0.00000,0.047,0.0140
2024,12,8,13:25:57.766,-1.960,8,-0.1,0.0,0.0,-0.99,0.02,0.01,1.00000,0.00003,0.00000,0.00000,0.047,0.0060
2024,12,8,13:25:57.768,-1.958,10,0.0,0.0,-0.1,-1.00,0.02,0.00,1.00000,0.00003,0.00000,0.00000,0.047,0.0090
2024,12,8,13:25:57.770,-1.956,12,0.0,0.0,0.0,-0.99,0.02,0.01,1.00000,0.00003,0.00000,0.00000,0.047,0.0070
2024,12,8,13:25:57.772,-1.954,14,0.0,0.0,0.0,-1.00,0.03,0.01,1.00000,0.00003,0.00000,0.00000,0.047,0.0060
2024,12,8,13:25:57.774,-1.952,16,-0.1,-0.1,0.0,-1.00,0.03,0.01,1.00000,0.00003,0.00000,0.00000,0.047,0.0030
2024,12,8,13:25:57.776,-1.950,18,0.0,0.0,0.1,-1.00,0.03,0.00,1.00000,0.00003,0.00000,0.00000,0.047,0.0060
2024,12,8,13:25:57.778,-1.948,20,0.0,0.0,0.0,-0.99,0.02,0.02,1.00000,0.00003,0.00000,0.00000,0.047,0.0140
2024,12,8,13:25:57.780,-1.946,22,0.0,0.0,0.0,-1.00,0.03,0.01,1.00000,0.00003,0.00000,0.00000,0.047,0.0150
2024,12,8,13:25:57.782,-1.944,24,0.0,-0.1,0.0,-1.00,0.03,0.02,1.00000,0.00003,0.00000,0.00000,0.047,0.0140
2024,12,8,13:25:57.784,-1.942,26,-0.1,-0.1,0.0,-0.99,0.02,0.00,1.00000,0.00003,0.00000,0.00000,0.047,0.0140
2024,12,8,13:25:57.786,-1.940,28,-0.1,0.0,0.0,-0.99,0.02,0.01,1.00000,0.00003,0.00000,0.00000,0.047,0.0090
2024,12,8,13:25:57.788,-1.938,30,-0.1,0.0,-0.1,-1.00,0.02,0.01,1.00000,0.00000,0.00000,0.00000,0.047,0.0140
2024,12,8,13:25:57.790,-1.936,32,0.0,-0.2,0.1,-1.00,0.02,0.01,1.00000,0.00000,0.00000,0.00000,0.047,0.0060
2024,12,8,13:25:57.792,-1.934,34,-0.1,0.0,0.0,-0.99,0.03,0.00,1.00000,0.00000,0.00000,0.00000,0.047,0.0070
2024,12,8,13:25:57.794,-1.932,36,-0.1,-0.1,0.1,-0.99,0.02,0.01,1.00000,0.00000,0.00000,0.00000,0.047,0.0120
2024,12,8,13:25:57.796,-1.930,38,0.0,0.0,0.0,-0.99,0.03,0.00,1.00000,0.00000,0.00000,0.00000,0.047,0.0110
2024,12,8,13:25:57.798,-1.928,40,0.0,0.0,0.0,-1.00,0.02,0.01,1.00000,0.00000,0.00000,0.00000,0.046,0.0110
2024,12,8,13:25:57.800,-1.926,42,0.0,0.0,0.0,-1.00,0.02,0.01,1.00000,0.00000,0.00000,0.00000,0.047,0.0090
2024,12,8,13:25:57.802,-1.924,44,0.0,-0.1,0.0,-0.99,0.03,0.01,1.00000,0.00000,0.00000,0.00000,0.047,0.0010
2024,12,8,13:25:57.804,-1.922,46,0.0,0.0,0.0,-0.99,0.02,0.01,1.00000,0.00000,0.00000,0.00000,0.047,0.0030
2024,12,8,13:25:57.806,-1.920,48,0.0,0.0,0.0,-1.00,0.02,0.02,1.00000,0.00000,0.00000,0.00000,0.047,0.0070
2024,12,8,13:25:57.808,-1.918,50,0.0,-0.1,0.0,-1.00,0.03,0.01,1.00000,0.00000,0.00000,0.00000,0.047,0.0060
2024,12,8,13:25:57.810,-1.916,52,0.0,0.0,-0.1,-0.99,0.03,0.01,1.00000,0.00000,0.00000,0.00000,0.047,0.0070
2024,12,8,13:25:57.812,-1.914,54,0.0,0.0,0.0,-0.99,0.02,0.01,1.00000,0.00000,0.00000,0.00000,0.047,0.0000
2024,12,8,13:25:57.814,-1.912,56,0.0,0.0,-0.1,-1.00,0.04,0.01,1.00000,0.00000,0.00000,0.00000,0.047,0.0060
2024,12,8,13:25:57.816,-1.910,58,0.0,0.0,-0.1,-1.00,0.02,0.01,1.00000,0.00000,0.00000,0.00000,0.047,0.0040
2024,12,8,13:25:57.818,-1.908,60,0.0,0.0,-0.1,-1.00,0.03,0.01,1.00000,0.00000,0.00000,0.00000,0.047,0.0040
2024,12,8,13:25:57.820,-1.906,62,0.0,0.0,-0.1,-0.99,0.03,0.02,1.00000,0.00003,0.00000,0.00000,0.047,0.0110
2024,12,8,13:25:57.822,-1.904,64,0.0,-0.2,0.1,-0.99,0.02,0.01,1.00000,0.00003,0.00000,0.00000,0.047,0.0060
2024,12,8,13:25:57.824,-1.902,66,0.0,-0.1,0.0,-1.00,0.02,0.02,1.00000,0.00003,0.00000,0.00000,0.047,0.0040
2024,12,8,13:25:57.826,-1.900,68,0.0,-0.1,0.0,-1.00,0.03,0.01,1.00000,0.00003,0.00000,0.00000,0.047,0.0060
2024,12,8,13:25:57.828,-1.898,70,0.0,0.0,0.0,-1.00,0.02,0.02,1.00000,0.00000,0.00000,0.00000,0.047,0.0060
2024,12,8,13:25:57.830,-1.896,72,-0.1,0.0,0.0,-1.00,0.02,0.02,1.00000,0.00000,0.00000,0.00000,0.047,0.0060
2024,12,8,13:25:57.832,-1.894,74,0.0,-0.1,0.0,-0.99,0.03,0.01,1.00000,0.00000,0.00000,0.00000,0.047,0.0010
2024,12,8,13:25:57.834,-1.892,76,0.0,0.0,0.0,-0.99,0.02,0.01,1.00000,0.00000,0.00000,0.00000,0.047,0.0000
2024,12,8,13:25:57.836,-1.890,78,0.0,-0.1,0.0,-1.00,0.03,0.01,1.00000,0.00000,0.00000,0.00000,0.047,0.0010
2024,12,8,13:25:57.838,-1.888,80,0.0,0.0,0.0,-0.99,0.03,0.01,1.00000,0.00000,0.00000,0.00000,0.047,0.0040
2024,12,8,13:25:57.840,-1.886,82,0.0,0.0,-0.2,-0.99,0.02,0.01,1.00000,0.00000,0.00000,0.00000,0.047,0.0090
2024,12,8,13:25:57.842,-1.884,84,0.0,0.0,0.0,-0.99,0.03,0.00,1.00000,0.00000,0.00000,0.00000,0.047,0.0070
2024,12,8,13:25:57.844,-1.882,86,0.0,0.0,0.0,-0.99,0.03,0.01,1.00000,0.00000,0.00000,0.00000,0.047,0.0110
2024,12,8,13:25:57.846,-1.880,88,0.0,0.0,0.0,-1.00,0.03,0.01,1.00000,0.00000,0.00000,0.00000,0.047,0.0090
2024,12,8,13:25:57.848,-1.878,90,0.0,0.0,0.0,-1.00,0.03,0.01,1.00000,0.00000,0.00000,0.00000,0.047,0.0060
2024,12,8,13:25:57.850,-1.876,92,0.0,-0.1,0.0,-0.99,0.03,0.01,1.00000,0.00000,0.00000,0.00000,0.047,0.0110
2024,12,8,13:25:57.852,-1.874,94,0.0,0.0,0.0,-1.00,0.03,0.01,1.00000,0.00000,0.00000,0.00000,0.047,0.0060
2024,12,8,13:25:57.854,-1.872,96,0.0,0.0,0.0,-0.99,0.03,0.01,1.00000,0.00000,0.00000,0.00000,0.047,0.0030
2024,12,8,13:25:57.856,-1.870,98,0.0,0.0,0.0,-0.99,0.03,0.02,1.00000,0.00000,0.00000,0.00000,0.047,0.0170
2024,12,8,13:25:57.858,-1.868,100,0.0,0.0,0.0,-0.99,0.02,0.00,1.00000,0.00000,0.00000,0.00000,0.047,0.0110
2024,12,8,13:25:57.860,-1.866,102,0.0,-0.1,0.0,-0.99,0.02,0.01,1.00000,0.00000,0.00000,0.00000,0.047,0.0070
2024,12,8,13:25:57.862,-1.864,104,0.0,0.0,-0.1,-0.99,0.03,0.01,1.00000,0.00000,0.00000,0.00000,0.047,0.0010
2024,12,8,13:25:57.864,-1.862,106,0.0,0.0,-0.1,-0.99,0.03,0.00,1.00000,0.00000,0.00000,0.00000,0.047,0.0000
2024,12,8,13:25:57.866,-1.860,108,0.0,0.0,0.0,-0.99,0.02,0.01,1.00000,0.00000,0.00000,0.00000,0.047,0.0150
2024,12,8,13:25:57.868,-1.858,110,0.1,-0.1,0.0,-0.99,0.03,0.01,1.00000,0.00000,0.00000,0.00000,0.047,0.0070
2024,12,8,13:25:57.870,-1.856,112,0.1,0.0,0.0,-1.00,0.02,0.01,1.00000,0.00000,0.00000,0.00000,0.047,0.0000
2024,12,8,13:25:57.872,-1.854,114,0.1,0.0,0.0,-1.00,0.02,0.01,1.00000,0.00003,0.00000,0.00000,0.047,0.0010
2024,12,8,13:25:57.874,-1.852,116,0.1,0.0,-0.1,-0.99,0.02,0.01,1.00000,0.00003,0.00000,0.00000,0.047,0.0070
2024,12,8,13:25:57.876,-1.850,118,0.0,-0.1,0.1,-1.00,0.02,0.01,1.00000,0.00003,-0.00003,0.00000,0.047,0.0120
2024,12,8,13:25:57.878,-1.848,120,0.0,0.0,0.0,-1.01,0.03,0.01,1.00000,0.00003,0.00000,0.00000,0.047,0.0070
2024,12,8,13:25:57.880,-1.846,122,0.1,-0.2,0.0,-1.00,0.02,0.01,1.00000,0.00003,-0.00003,0.00000,0.047,0.0110
2024,12,8,13:25:57.882,-1.844,124,0.0,0.0,-0.1,-0.99,0.04,0.01,1.00000,0.00003,-0.00003,0.00000,0.047,0.0060
2024,12,8,13:25:57.884,-1.842,126,0.1,0.0,0.0,-0.99,0.02,0.02,1.00000,0.00003,-0.00003,0.00000,0.047,0.0060
2024,12,8,13:25:57.886,-1.840,128,0.1,0.0,0.0,-0.99,0.02,0.01,1.00000,0.00003,-0.00003,0.00000,0.047,0.0010
2024,12,8,13:25:57.888,-1.838,130,0.0,0.0,0.0,-1.00,0.02,0.01,1.00000,0.00003,-0.00003,0.00000,0.047,0.0030
2024,12,8,13:25:57.890,-1.836,132,0.1,0.0,0.0,-1.00,0.02,0.02,1.00000,0.00000,0.00000,0.00000,0.047,0.0000
2024,12,8,13:25:57.892,-1.834,134,0.0,-0.1,0.0,-1.00,0.02,0.01,1.00000,0.00000,0.00000,0.00000,0.047,0.0040
2024,12,8,13:25:57.894,-1.832,136,0.0,-0.1,-0.1,-1.00,0.02,0.02,1.00000,0.00000,0.00000,0.00000,0.047,0.0040
2024,12,8,13:25:57.896,-1.830,138,0.0,0.0,-0.1,-1.00,0.02,0.01,1.00000,0.00000,0.00000,0.00000,0.047,0.0000
2024,12,8,13:25:57.898,-1.828,140,0.0,0.0,-0.1,-0.99,0.04,0.01,1.00000,0.00000,0.00000,0.00000,0.047,0.0030
2024,12,8,13:25:57.900,-1.826,142,0.0,-0.1,-0.1,-0.99,0.03,0.01,1.00000,0.00000,0.00000,0.00000,0.047,0.0090
2024,12,8,13:25:57.902,-1.824,144,0.0,0.0,0.2,-0.99,0.02,0.01,1.00000,0.00000,0.00000,0.00000,0.047,0.0070
2024,12,8,13:25:57.904,-1.822,146,-0.1,0.1,0.0,-1.00,0.03,0.00,1.00000,0.00000,0.00000,0.00000,0.047,0.0090
2024,12,8,13:25:57.906,-1.820,148,-0.1,0.0,0.1,-0.99,0.02,0.01,1.00000,0.00000,0.00000,0.00000,0.047,0.0150
2024,12,8,13:25:57.908,-1.818,150,0.0,0.0,0.0,-1.00,0.03,0.00,1.00000,0.00000,0.00000,0.00000,0.047,0.0090
2024,12,8,13:25:57.910,-1.816,152,-0.1,0.0,-0.1,-0.99,0.02,0.01,1.00000,0.00000,0.00000,0.00000,0.047,0.0030
2024,12,8,13:25:57.912,-1.814,154,0.0,0.0,0.0,-1.00,0.02,0.01,1.00000,0.00000,0.00000,0.00000,0.047,0.0030
2024,12,8,13:25:57.914,-1.812,156,-0.1,0.0,0.0,-0.98,0.02,0.01,1.00000,0.00000,0.00000,0.00000,0.047,0.0040
2024,12,8,13:25:57.916,-1.810,158,0.0,0.1,-0.1,-0.99,0.02,0.02,1.00000,0.00000,0.00000,0.00000,0.047,0.0060
2024,12,8,13:25:57.918,-1.808,160,-0.1,0.0,0.0,-1.00,0.02,0.02,1.00000,0.00000,0.00000,0.00000,0.047,0.0070
2024,12,8,13:25:57.920,-1.806,162,-0.1,0.0,-0.1,-1.00,0.02,0.02,1.00000,0.00000,0.00000,0.00000,0.047,0.0070
2024,12,8,13:25:57.922,-1.804,164,0.0,0.0,-0.1,-0.99,0.02,0.01,1.00000,0.00000,0.00000,0.00000,0.047,0.0110
2024,12,8,13:25:57.924,-1.802,166,0.0,0.0,0.0,-0.99,0.02,0.01,1.00000,0.00000,0.00000,0.00000,0.047,0.0110
2024,12,8,13:25:57.926,-1.800,168,0.0,0.0,0.0,-0.99,0.03,0.02,1.00000,0.00000,0.00000,0.00000,0.047,0.0120
2024,12,8,13:25:57.928,-1.798,170,0.0,0.0,0.0,-0.99,0.02,0.01,1.00000,0.00000,0.00000,0.00000,0.047,0.0060
2024,12,8,13:25:57.930,-1.796,172,0.0,0.0,0.0,-1.00,0.03,0.01,1.00000,0.00000,0.00000,0.00000,0.047,0.0060
2024,12,8,13:25:57.932,-1.794,174,0.0,0.0,0.0,-1.00,0.03,0.01,1.00000,0.00000,0.00000,0.00000,0.047,0.0070
2024,12,8,13:25:57.934,-1.792,176,0.0,0.0,0.0,-0.98,0.03,0.01,1.00000,0.00000,0.00000,0.00000,0.047,0.0040
2024,12,8,13:25:57.936,-1.790,178,0.0,0.0,0.0,-1.00,0.03,0.01,1.00000,0.00000,0.00000,0.00000,0.047,0.0090
2024,12,8,13:25:57.938,-1.788,180,0.0,0.0,0.0,-1.00,0.03,0.01,1.00000,0.00000,0.00000,0.00000,0.047,0.0090
2024,12,8,13:25:57.940,-1.786,182,0.0,0.0,-0.1,-0.99,0.02,0.01,1.00000,0.00000,0.00000,0.00000,0.047,0.0070
2024,12,8,13:25:57.942,-1.784,184,0.0,0.0,0.0,-0.99,0.02,0.01,1.00000,0.00000,0.00000,0.00000,0.047,0.0120
2024,12,8,13:25:57.944,-1.782,186,0.0,0.0,0.0,-1.00,0.03,0.01,1.00000,0.00000,0.00000,0.00000,0.047,0.0120
2024,12,8,13:25:57.946,-1.780,188,0.0,0.0,0.0,-1.00,0.02,0.01,1.00000,0.00000,0.00000,0.00000,0.047,0.0070
2024,12,8,13:25:57.948,-1.778,190,0.0,0.0,0.0,-1.00,0.02,0.01,1.00000,0.00000,0.00000,0.00000,0.047,0.0090
2024,12,8,13:25:57.950,-1.776,192,0.0,0.0,0.0,-0.99,0.03,0.01,1.00000,0.00000,0.00000,0.00000,0.046,0.0000
2024,12,8,13:25:57.952,-1.774,194,0.0,0.1,0.0,-0.99,0.03,0.01,1.00000,0.00000,0.00000,0.00000,0.047,0.0040
2024,12,8,13:25:57.954,-1.772,196,0.0,0.0,0.0,-1.00,0.02,0.01,1.00000,0.00000,0.00000,0.00000,0.047,0.0030
2024,12,8,13:25:57.956,-1.770,198,0.0,0.1,0.0,-1.00,0.02,0.01,1.00000,0.00000,0.00000,0.00000,0.047,0.0030
2024,12,8,13:25:57.958,-1.768,200,0.0,-0.1,0.1,-0.99,0.02,0.02,1.00000,0.00000,0.00000,0.00000,0.046,0.0060
2024,12,8,13:25:57.960,-1.766,202,0.0,0.0,0.0,-1.00,0.03,0.01,1.00000,0.00000,0.00000,0.00000,0.047,0.0000
2024,12,8,13:25:57.962,-1.764,204,0.0,0.0,0.0,-0.99,0.02,0.01,1.00000,0.00000,0.00000,0.00000,0.047,0.0070
2024,12,8,13:25:57.964,-1.762,206,0.0,0.0,0.0,-1.00,0.03,0.01,1.00000,0.00000,0.00000,0.00000,0.047,0.0040
2024,12,8,13:25:57.966,-1.760,208,0.0,0.0,0.0,-1.00,0.03,0.01,1.00000,0.00000,0.00000,0.00000,0.047,0.0090
2024,12,8,13:25:57.968,-1.758,210,-0.1,0.0,0.0,-0.99,0.02,0.01,1.00000,0.00000,0.00000,0.00000,0.047,0.0070
2024,12,8,13:25:57.970,-1.756,212,-0.1,0.0,0.0,-1.00,0.02,0.02,1.00000,0.00000,0.00000,0.00000,0.047,0.0070
2024,12,8,13:25:57.972,-1.754,214,0.0,0.0,0.0,-1.00,0.03,0.02,1.00000,0.00000,0.00000,0.00000,0.047,0.0060
2024,12,8,13:25:57.974,-1.752,216,-0.1,0.0,0.0,-0.99,0.03,0.01,1.00000,0.00000,0.00000,0.00000,0.047,0.0110
2024,12,8,13:25:57.976,-1.750,218,0.0,0.0,0.0,-0.99,0.02,0.01,1.00000,0.00000,0.00000,0.00000,0.047,0.0070
2024,12,8,13:25:57.978,-1.748,220,0.0,0.0,0.0,-0.99,0.02,0.01,1.00000,0.00000,0.00000,0.00000,0.047,0.0030
2024,12,8,13:25:57.980,-1.746,222,0.0,0.1,0.1,-1.00,0.02,0.01,1.00000,0.00000,0.00000,0.00000,0.047,0.0090
2024,12,8,13:25:57.982,-1.744,224,0.0,0.2,0.0,-0.99,0.02,0.01,1.00000,0.00000,0.00000,0.00000,0.046,0.0090
2024,12,8,13:25:57.984,-1.742,226,0.0,0.1,0.0,-0.98,0.02,0.01,1.00000,0.00000,0.00000,0.00000,0.047,0.0070
2024,12,8,13:25:57.986,-1.740,228,0.0,0.0,0.0,-0.99,0.02,0.01,1.00000,0.00000,0.00000,0.00000,0.047,0.0140
2024,12,8,13:25:57.988,-1.738,230,0.0,0.0,0.0,-0.99,0.02,0.01,1.00000,0.00000,0.00000,0.00000,0.047,0.0090
2024,12,8,13:25:57.990,-1.736,232,0.0,0.0,0.0,-0.99,0.03,0.01,1.00000,0.00000,0.00000,0.00000,0.047,0.0000
2024,12,8,13:25:57.992,-1.734,234,0.0,0.0,0.0,-1.00,0.02,0.01,1.00000,0.00000,0.00000,0.00000,0.047,0.0000
2024,12,8,13:25:57.994,-1.732,236,0.0,0.0,0.0,-1.00,0.03,0.01,1.00000,0.00000,0.00000,0.00000,0.047,0.0000
2024,12,8,13:25:57.996,-1.730,238,0.0,0.0,0.0,-0.99,0.03,0.01,1.00000,0.00000,0.00000,0.00000,0.046,0.0060
2024,12,8,13:25:57.998,-1.728,240,0.0,0.0,0.0,-0.99,0.03,0.02,1.00000,0.00000,0.00000,0.00000,0.047,0.0040
2024,12,8,13:25:58.000,-1.726,242,0.0,0.0,0.0,-0.99,0.04,0.01,1.00000,0.00000,0.00000,0.00000,0.047,0.0070
2024,12,8,13:25:58.002,-1.724,244,0.0,0.0,0.0,-1.00,0.03,0.01,1.00000,0.00000,0.00000,0.00000,0.047,0.0030
2024,12,8,13:25:58.004,-1.722,246,0.0,0.0,0.0,-1.00,0.02,0.01,1.00000,0.00000,0.00000,0.00000,0.047,0.0030
2024,12,8,13:25:58.006,-1.720,248,0.0,0.0,0.0,-1.00,0.03,0.02,1.00000,0.00000,0.00000,0.00000,0.047,0.0010
2024,12,8,13:25:58.008,-1.718,0,0.0,0.0,0.0,-0.99,0.02,0.02,1.00000,0.00000,0.00000,0.00000,0.047,0.0040
2024,12,8,13:25:58.010,-1.716,2,0.0,0.0,0.0,-1.00,0.02,0.02,1.00000,0.00000,0.00000,0.00000,0.047,0.0040
2024,12,8,13:25:58.012,-1.714,4,0.0,0.1,0.0,-1.00,0.03,0.00,1.00000,0.00000,0.00000,0.00000,0.047,0.0110
2024,12,8,13:25:58.014,-1.712,6,0.0,0.0,0.2,-0.99,0.02,0.02,1.00000,0.00000,0.00000,0.00000,0.047,0.0170
2024,12,8,13:25:58.016,-1.710,8,0.0,-0.1,0.0,-0.99,0.02,0.01,1.00000,0.00000,0.00000,0.00000,0.047,0.0070
2024,12,8,13:25:58.018,-1.708,10,-0.2,0.2,0.0,-0.99,0.03,0.01,1.00000,0.00000,0.00000,0.00000,0.047,0.0070
2024,12,8,13:25:58.020,-1.706,12,0.3,-0.1,0.0,-0.98,0.02,0.01,1.00000,0.00000,0.00000,0.00000,0.047,0.0090
2024,12,8,13:25:58.022,-1.704,14,-0.2,0.2,0.0,-1.01,0.02,0.00,1.00000,0.00000,0.00000,0.00000,0.047,0.0170
2024,12,8,13:25:58.024,-1.702,16,-0.1,0.5,0.0,-1.00,0.04,0.00,1.00000,0.00000,0.00003,0.00000,0.047,0.0070
2024,12,8,13:25:58.026,-1.700,18,-0.1,-0.1,0.0,-1.00,0.02,0.02,1.00000,0.00000,0.00003,0.00000,0.047,0.0070
2024,12,8,13:25:58.028,-1.698,20,0.2,0.2,0.0,-1.00,0.02,-0.01,1.00000,0.00000,0.00003,0.00000,0.047,0.0060
2024,12,8,13:25:58.030,-1.696,22,-0.4,0.0,0.0,-1.01,0.05,0.01,1.00000,0.00000,0.00003,0.00000,0.047,0.0090
2024,12,8,13:25:58.032,-1.694,24,0.2,0.0,0.1,-0.99,0.01,0.03,1.00000,0.00000,0.00003,0.00000,0.047,0.0120
2024,12,8,13:25:58.034,-1.692,26,-0.1,-0.2,0.0,-0.99,0.05,0.03,1.00000,0.00000,0.00003,0.00000,0.047,0.0110
2024,12,8,13:25:58.036,-1.690,28,0.2,0.2,0.0,-1.02,0.03,0.00,1.00000,0.00000,0.00003,0.00000,0.047,0.0110
2024,12,8,13:25:58.038,-1.688,30,0.0,-0.4,0.1,-0.96,0.03,0.02,1.00000,0.00000,0.00003,0.00000,0.047,0.0110
2024,12,8,13:25:58.040,-1.686,32,0.1,0.0,0.0,-0.99,0.02,0.02,1.00000,0.00000,0.00003,0.00000,0.047,0.0070
2024,12,8,13:25:58.042,-1.684,34,0.0,0.0,0.1,-0.99,0.04,0.00,1.00000,0.00000,0.00003,0.00003,0.047,0.0060
2024,12,8,13:25:58.044,-1.682,36,0.0,0.0,0.0,-0.99,0.01,0.01,1.00000,0.00000,0.00003,0.00003,0.047,0.0070
2024,12,8,13:25:58.046,-1.680,38,-0.3,0.0,0.0,-0.98,0.04,0.00,1.00000,0.00000,0.00003,0.00003,0.047,0.0090
2024,12,8,13:25:58.048,-1.678,40,0.0,0.4,0.0,-1.00,0.03,-0.01,1.00000,0.00000,0.00003,0.00003,0.047,0.0030
2024,12,8,13:25:58.050,-1.676,42,0.0,0.0,-0.1,-1.00,0.03,0.01,1.00000,0.00000,0.00003,0.00003,0.047,0.0060
2024,12,8,13:25:58.052,-1.674,44,0.0,0.3,0.0,-0.99,0.03,0.00,1.00000,0.00000,0.00003,0.00003,0.047,0.0070
2024,12,8,13:25:58.054,-1.672,46,-0.4,0.0,0.0,-1.00,0.03,0.02,1.00000,0.00000,0.00003,0.00003,0.046,0.0000
2024,12,8,13:25:58.056,-1.670,48,0.2,0.2,0.0,-0.98,0.03,0.04,1.00000,0.00000,0.00003,0.00003,0.047,0.0070
2024,12,8,13:25:58.058,-1.668,50,0.0,0.0,0.0,-0.99,0.02,0.01,1.00000,0.00000,0.00003,0.00003,0.047,0.0010
2024,12,8,13:25:58.060,-1.666,52,0.2,0.0,0.1,-0.99,0.02,0.02,1.00000,0.00000,0.00003,0.00003,0.047,0.0040
2024,12,8,13:25:58.062,-1.664,54,0.0,-0.3,0.0,-0.99,0.03,0.03,1.00000,0.00000,0.00003,0.00003,0.047,0.0010
2024,12,8,13:25:58.064,-1.662,56,0.0,0.2,0.0,-0.99,0.03,0.00,1.00000,0.00000,0.00003,0.00003,0.047,0.0060
2024,12,8,13:25:58.066,-1.660,58,0.0,-0.1,-0.1,-0.99,0.04,0.00,1.00000,0.00000,0.00003,0.00003,0.047,0.0060
2024,12,8,13:25:58.068,-1.658,60,0.1,0.1,-0.1,-0.99,0.02,0.01,1.00000,0.00000,0.00003,0.00000,0.047,0.0040
2024,12,8,13:25:58.070,-1.656,62,0.0,0.0,0.0,-1.00,0.03,0.00,1.00000,0.00000,0.00003,0.00000,0.047,0.0010
2024,12,8,13:25:58.072,-1.654,64,0.2,0.2,-0.1,-1.00,0.03,0.00,1.00000,0.00000,0.00003,0.00000,0.047,0.0040
2024,12,8,13:25:58.074,-1.652,66,0.2,0.0,-0.1,-0.99,0.02,0.02,1.00000,0.00000,0.00003,0.00000,0.047,0.0040
2024,12,8,13:25:58.076,-1.650,68,0.0,0.2,0.0,-1.00,0.02,0.00,1.00000,0.00000,0.00003,0.00000,0.047,0.0070
2024,12,8,13:25:58.078,-1.648,70,0.1,0.0,0.0,-0.99,0.02,0.02,1.00000,0.00000,0.00003,0.00000,0.047,0.0060
2024,12,8,13:25:58.080,-1.646,72,0.2,0.1,0.0,-0.99,0.03,0.02,1.00000,0.00000,0.00003,0.00000,0.047,0.0090
2024,12,8,13:25:58.082,-1.644,74,0.0,0.0,0.0,-0.99,0.03,0.01,1.00000,0.00000,0.00003,0.00000,0.047,0.0010
2024,12,8,13:25:58.084,-1.642,76,0.2,0.0,0.0,-0.99,0.02,0.02,1.00000,0.00000,0.00003,0.00000,0.047,0.0040
2024,12,8,13:25:58.086,-1.640,78,0.0,-0.3,0.0,-0.99,0.01,0.01,1.00000,0.00000,0.00003,0.00000,0.047,0.0060
2024,12,8,13:25:58.088,-1.638,80,0.0,0.3,0.0,-1.00,0.02,0.01,1.00000,0.00000,0.00003,0.00000,0.047,0.0060
2024,12,8,13:25:58.090,-1.636,82,0.0,0.0,0.0,-0.99,0.02,0.00,1.00000,0.00000,0.00003,0.00000,0.047,0.0070
2024,12,8,13:25:58.092,-1.634,84,0.0,0.1,0.0,-0.99,0.02,0.02,1.00000,0.00000,0.00003,0.00000,0.047,0.0110
2024,12,8,13:25:58.094,-1.632,86,0.0,0.0,0.0,-1.00,0.03,0.00,1.00000,0.00000,0.00003,0.00000,0.047,0.0030
2024,12,8,13:25:58.096,-1.630,88,0.0,0.0,-0.1,-0.99,0.04,0.02,1.00000,0.00000,0.00007,0.00000,0.047,0.0040
2024,12,8,13:25:58.098,-1.628,90,0.0,0.2,0.0,-0.99,0.04,0.00,1.00000,0.00000,0.00007,0.00000,0.047,0.0120
2024,12,8,13:25:58.100,-1.626,92,-0.1,0.0,0.0,-1.00,0.04,0.01,1.00000,0.00000,0.00007,0.00000,0.047,0.0110
2024,12,8,13:25:58.102,-1.624,94,-0.1,0.0,0.0,-1.00,0.03,0.01,1.00000,0.00000,0.00007,0.00000,0.047,0.0110
2024,12,8,13:25:58.104,-1.622,96,-0.1,0.1,0.0,-0.99,0.03,0.02,1.00000,0.00000,0.00007,0.00000,0.047,0.0110
2024,12,8,13:25:58.106,-1.620,98,0.0,0.0,0.0,-0.99,0.04,0.00,1.00000,0.00000,0.00007,0.00000,0.047,0.0070
2024,12,8,13:25:58.108,-1.618,100,0.0,0.0,-0.1,-0.99,0.03,0.00,1.00000,0.00000,0.00007,0.00000,0.047,0.0140
2024,12,8,13:25:58.110,-1.616,102,-0.1,-0.1,0.0,-0.99,0.02,0.01,1.00000,0.00000,0.00007,0.00000,0.047,0.0120
2024,12,8,13:25:58.112,-1.614,104,0.0,0.0,0.0,-0.99,0.02,0.02,1.00000,0.00000,0.00007,0.00000,0.047,0.0040
2024,12,8,13:25:58.114,-1.612,106,0.0,0.1,-0.1,-0.99,0.03,0.00,1.00000,0.00000,0.00007,0.00000,0.047,0.0070
2024,12,8,13:25:58.116,-1.610,108,-0.1,0.0,0.0,-1.00,0.03,0.01,1.00000,0.00000,0.00007,0.00000,0.047,0.0090
2024,12,8,13:25:58.118,-1.608,110,-0.1,0.0,0.0,-0.99,0.02,0.01,1.00000,0.00000,0.00007,0.00000,0.047,0.0090
2024,12,8,13:25:58.120,-1.606,112,-0.1,0.0,0.0,-0.99,0.04,0.01,1.00000,0.00000,0.00007,0.00000,0.047,0.0110
2024,12,8,13:25:58.122,-1.604,114,0.0,0.0,0.0,-1.00,0.03,0.00,1.00000,0.00000,0.00007,0.00000,0.047,0.0090
2024,12,8,13:25:58.124,-1.602,116,-0.1,0.0,-0.1,-1.00,0.03,0.01,1.00000,0.00000,0.00007,0.00000,0.047,0.0060
2024,12,8,13:25:58.126,-1.600,118,0.0,0.0,0.0,-1.00,0.03,0.01,1.00000,0.00000,0.00007,0.00000,0.047,0.0090
2024,12,8,13:25:58.128,-1.598,120,0.0,0.0,0.0,-1.00,0.02,0.01,1.00000,0.00000,0.00007,0.00000,0.047,0.0120
2024,12,8,13:25:58.130,-1.596,122,0.0,0.0,0.0,-1.00,0.03,0.01,1.00000,0.00000,0.00007,0.00000,0.047,0.0060
2024,12,8,13:25:58.132,-1.594,124,0.0,-0.1,-0.1,-0.99,0.04,0.01,1.00000,0.00000,0.00007,0.00000,0.047,0.0090
2024,12,8,13:25:58.134,-1.592,126,0.1,0.0,0.0,-0.99,0.03,0.02,1.00000,0.00000,0.00007,0.00000,0.047,0.0040
2024,12,8,13:25:58.136,-1.590,128,0.0,0.1,0.0,-1.00,0.02,0.01,1.00000,0.00000,0.00007,0.00000,0.047,0.0030
2024,12,8,13:25:58.138,-1.588,130,0.1,0.1,0.0,-0.99,0.03,0.01,1.00000,0.00000,0.00007,0.00000,0.047,0.0110
2024,12,8,13:25:58.140,-1.586,132,0.2,0.0,-0.1,-1.00,0.02,0.01,1.00000,0.00000,0.00007,0.00000,0.046,0.0070
2024,12,8,13:25:58.142,-1.584,134,0.1,0.0,-0.1,-0.99,0.03,0.00,1.00000,0.00000,0.00007,0.00000,0.047,0.0000
2024,12,8,13:25:58.144,-1.582,136,0.1,0.0,0.0,-0.99,0.03,0.01,1.00000,0.00000,0.00007,0.00000,0.047,0.0060
2024,12,8,13:25:58.146,-1.580,138,0.0,0.1,0.0,-1.00,0.02,0.00,1.00000,0.00000,0.00007,0.00000,0.047,0.0000
2024,12,8,13:25:58.148,-1.578,140,0.1,0.1,-0.1,-0.99,0.03,0.02,1.00000,0.00000,0.00007,0.00000,0.047,0.0040
2024,12,8,13:25:58.150,-1.576,142,0.0,0.0,-0.1,-0.99,0.02,0.01,1.00000,0.00000,0.00007,0.00000,0.047,0.0040
2024,12,8,13:25:58.152,-1.574,144,0.0,0.0,0.0,-0.99,0.03,0.02,1.00000,0.00000,0.00007,0.00000,0.047,0.0010
2024,12,8,13:25:58.154,-1.572,146,0.0,0.0,0.0,-0.98,0.02,0.01,1.00000,0.00000,0.00007,0.00000,0.047,0.0060
2024,12,8,13:25:58.156,-1.570,148,0.0,0.0,0.0,-0.99,0.03,0.01,1.00000,0.00000,0.00007,0.00000,0.047,0.0090
2024,12,8,13:25:58.158,-1.568,150,0.0,0.0,0.0,-0.99,0.03,0.00,1.00000,0.00000,0.00007,0.00000,0.047,0.0120
2024,12,8,13:25:58.160,-1.566,152,0.0,0.0,0.0,-1.00,0.03,0.00,1.00000,0.00000,0.00007,0.00000,0.047,0.0090
2024,12,8,13:25:58.162,-1.564,154,0.0,0.0,0.0,-0.99,0.02,0.01,1.00000,0.00000,0.00007,0.00000,0.047,0.0140
2024,12,8,13:25:58.164,-1.562,156,0.0,0.0,0.0,-0.99,0.03,0.01,1.00000,0.00000,0.00007,0.00000,0.047,0.0060
2024,12,8,13:25:58.166,-1.560,158,0.0,0.1,0.0,-1.00,0.04,0.00,1.00000,0.00000,0.00007,0.00000,0.047,0.0120
2024,12,8,13:25:58.168,-1.558,160,0.0,0.1,0.0,-1.00,0.03,0.00,1.00000,0.00000,0.00007,0.00000,0.047,0.0060
2024,12,8,13:25:58.170,-1.556,162,0.0,0.0,0.0,-0.99,0.02,0.00,1.00000,0.00000,0.00007,0.00000,0.047,0.0120
2024,12,8,13:25:58.172,-1.554,164,0.0,0.1,-0.1,-1.00,0.02,0.01,1.00000,0.00000,0.00007,0.00000,0.047,0.0070
2024,12,8,13:25:58.174,-1.552,166,0.0,0.1,-0.1,-0.99,0.02,0.00,1.00000,0.00000,0.00010,0.00000,0.047,0.0090
2024,12,8,13:25:58.176,-1.550,168,0.0,0.0,-0.1,-0.99,0.02,0.01,1.00000,0.00000,0.00010,0.00000,0.047,0.0070
2024,12,8,13:25:58.178,-1.548,170,-0.1,0.0,-0.1,-0.99,0.02,0.01,1.00000,0.00000,0.00010,0.00000,0.047,0.0090
2024,12,8,13:25:58.180,-1.546,172,-0.1,0.0,-0.1,-0.99,0.01,0.02,1.00000,0.00000,0.00007,0.00000,0.047,0.0090
2024,12,8,13:25:58.182,-1.544,174,0.0,0.0,0.0,-0.99,0.02,0.00,1.00000,0.00000,0.00010,0.00000,0.047,0.0110
2024,12,8,13:25:58.184,-1.542,176,-0.1,0.0,-0.1,-0.99,0.02,0.01,1.00000,0.00000,0.00010,0.00000,0.047,0.0090
2024,12,8,13:25:58.186,-1.540,178,0.0,0.0,0.0,-0.99,0.03,0.00,1.00000,0.00000,0.00010,0.00000,0.047,0.0060
2024,12,8,13:25:58.188,-1.538,180,-0.1,-0.2,-0.1,-1.00,0.02,0.00,1.00000,0.00000,0.00007,0.00000,0.047,0.0090
2024,12,8,13:25:58.190,-1.536,182,0.0,0.1,0.0,-1.00,0.03,0.01,1.00000,0.00000,0.00010,0.00000,0.047,0.0110
2024,12,8,13:25:58.192,-1.534,184,0.0,0.0,0.0,-0.99,0.03,0.01,1.00000,0.00000,0.00007,0.00000,0.047,0.0060
2024,12,8,13:25:58.194,-1.532,186,0.0,0.0,-0.1,-1.00,0.03,0.00,1.00000,0.00000,0.00007,0.00000,0.048,0.0110
2024,12,8,13:25:58.196,-1.530,188,0.0,0.0,0.0,-0.99,0.03,0.01,1.00000,0.00000,0.00007,0.00000,0.047,0.0040
2024,12,8,13:25:58.198,-1.528,190,0.0,0.0,0.0,-1.00,0.02,0.01,1.00000,0.00000,0.00007,0.00000,0.047,0.0060
2024,12,8,13:25:58.200,-1.526,192,0.1,-0.1,0.0,-0.99,0.02,0.02,1.00000,0.00000,0.00007,0.00000,0.047,0.0110
2024,12,8,13:25:58.202,-1.524,194,0.0,0.0,-0.1,-1.00,0.01,0.00,1.00000,0.00000,0.00007,0.00000,0.047,0.0120
2024,12,8,13:25:58.204,-1.522,196,0.0,0.0,0.0,-1.00,0.03,0.01,1.00000,0.00000,0.00007,0.00000,0.047,0.0070
2024,12,8,13:25:58.206,-1.520,198,0.1,0.0,0.0,-0.99,0.03,0.00,1.00000,0.00000,0.00007,0.00000,0.047,0.0070
2024,12,8,13:25:58.208,-1.518,200,0.1,0.0,0.0,-0.99,0.02,0.00,1.00000,0.00000,0.00007,0.00000,0.047,0.0110
2024,12,8,13:25:58.210,-1.516,202,0.0,0.0,0.0,-0.99,0.01,0.00,1.00000,0.00000,0.00007,0.00000,0.048,0.0120
2024,12,8,13:25:58.212,-1.514,204,0.0,0.0,0.0,-0.99,0.02,0.01,1.00000,0.00000,0.00007,0.00000,0.047,0.0150
2024,12,8,13:25:58.214,-1.512,206,0.0,0.0,0.0,-0.99,0.01,0.01,1.00000,0.00000,0.00007,0.00000,0.047,0.0140
2024,12,8,13:25:58.216,-1.510,208,0.0,0.0,-0.1,-0.99,0.02,0.01,1.00000,0.00000,0.00007,0.00000,0.047,0.0090
2024,12,8,13:25:58.218,-1.508,210,0.1,0.0,0.0,-0.99,0.02,0.01,1.00000,0.00000,0.00007,0.00000,0.047,0.0040
2024,12,8,13:25:58.220,-1.506,212,-0.1,0.0,0.0,-1.00,0.02,0.01,1.00000,0.00000,0.00007,0.00000,0.048,0.0090
2024,12,8,13:25:58.222,-1.504,214,0.0,0.0,0.0,-0.99,0.01,0.01,1.00000,0.00000,0.00007,0.00000,0.047,0.0090
2024,12,8,13:25:58.224,-1.502,216,0.0,-0.1,0.0,-0.99,0.02,0.01,1.00000,0.00000,0.00007,0.00000,0.047,0.0070
2024,12,8,13:25:58.226,-1.500,218,0.0,-0.2,-0.1,-1.00,0.03,0.00,1.00000,0.00000,0.00007,0.00000,0.047,0.0060
2024,12,8,13:25:58.228,-1.498,220,0.1,-0.1,0.0,-0.99,0.03,0.01,1.00000,0.00000,0.00007,0.00000,0.047,0.0110
2024,12,8,13:25:58.230,-1.496,222,0.2,0.0,0.0,-0.99,0.02,0.01,1.00000,0.00000,0.00007,0.00000,0.047,0.0140
2024,12,8,13:25:58.232,-1.494,224,0.0,0.0,-0.1,-0.99,0.03,0.00,1.00000,0.00000,0.00007,0.00000,0.047,0.0150
2024,12,8,13:25:58.234,-1.492,226,0.0,0.0,-0.1,-0.99,0.02,0.01,1.00000,0.00000,0.00007,0.00000,0.047,0.0110
2024,12,8,13:25:58.236,-1.490,228,0.0,-0.1,-0.1,-0.99,0.02,0.01,1.00000,0.00000,0.00007,0.00000,0.047,0.0040
2024,12,8,13:25:58.238,-1.488,230,0.0,0.1,-0.1,-0.99,0.02,0.01,1.00000,0.00000,0.00007,0.00000,0.047,0.0070
2024,12,8,13:25:58.240,-1.486,232,0.0,0.0,0.0,-0.99,0.02,0.01,1.00000,0.00000,0.00007,0.00000,0.047,0.0150
2024,12,8,13:25:58.242,-1.484,234,0.0,-0.1,0.1,-0.99,0.02,0.01,1.00000,0.00000,0.00007,0.00000,0.047,0.0090
2024,12,8,13:25:58.244,-1.482,236,0.0,0.0,-0.1,-0.99,0.02,0.00,1.00000,0.00000,0.00007,0.00000,0.047,0.0040
2024,12,8,13:25:58.246,-1.480,238,-0.1,-0.1,-0.1,-1.00,0.02,0.01,1.00000,0.00000,0.00007,0.00000,0.047,0.0090
2024,12,8,13:25:58.248,-1.478,240,-0.1,0.0,0.0,-1.00,0.02,0.00,1.00000,0.00000,0.00007,0.00000,0.047,0.0060
2024,12,8,13:25:58.250,-1.476,242,-0.1,0.0,0.0,-1.00,0.03,0.01,1.00000,0.00000,0.00007,0.00000,0.047,0.0090
2024,12,8,13:25:58.252,-1.474,244,0.0,0.0,0.0,-1.00,0.03,0.01,1.00000,0.00000,0.00007,0.00000,0.047,0.0070
2024,12,8,13:25:58.254,-1.472,246,0.0,0.0,-0.1,-0.99,0.03,0.00,1.00000,0.00000,0.00007,0.00000,0.047,0.0040
2024,12,8,13:25:58.256,-1.470,248,0.0,0.0,0.0,-1.00,0.03,0.00,1.00000,0.00000,0.00007,0.00000,0.047,0.0010
2024,12,8,13:25:58.258,-1.468,0,0.0,0.0,0.1,-0.99,0.03,0.01,1.00000,0.00000,0.00007,0.00000,0.047,0.0010
2024,12,8,13:25:58.260,-1.466,2,0.0,0.0,0.0,-1.00,0.03,0.01,1.00000,0.00000,0.00007,0.00000,0.047,0.0070
2024,12,8,13:25:58.262,-1.464,4,0.0,0.0,-0.1,-1.00,0.02,0.01,1.00000,0.00000,0.00007,0.00000,0.047,0.0040
2024,12,8,13:25:58.264,-1.462,6,0.0,0.0,0.0,-0.99,0.02,0.01,1.00000,0.00000,0.00007,0.00000,0.047,0.0000
2024,12,8,13:25:58.266,-1.460,8,0.0,0.0,0.0,-0.99,0.03,0.01,1.00000,0.00000,0.00007,0.00000,0.047,0.0110
2024,12,8,13:25:58.268,-1.458,10,0.0,0.0,-0.1,-1.00,0.02,0.01,1.00000,0.00000,0.00007,-0.00003,0.047,0.0060
2024,12,8,13:25:58.270,-1.456,12,0.0,0.0,0.0,-0.99,0.01,0.00,1.00000,0.00000,0.00007,-0.00003,0.047,0.0070
2024,12,8,13:25:58.272,-1.454,14,0.1,0.0,0.0,-0.99,0.02,0.01,1.00000,0.00000,0.00007,-0.00003,0.047,0.0070
2024,12,8,13:25:58.274,-1.452,16,0.0,0.0,0.0,-1.00,0.01,0.02,1.00000,0.00000,0.00007,-0.00003,0.047,0.0040
2024,12,8,13:25:58.276,-1.450,18,0.0,0.0,0.0,-1.00,0.02,0.00,1.00000,0.00000,0.00007,0.00000,0.047,0.0110
2024,12,8,13:25:58.278,-1.448,20,0.0,0.0,0.0,-0.99,0.03,0.00,1.00000,0.00000,0.00007,-0.00003,0.047,0.0070
2024,12,8,13:25:58.280,-1.446,22,0.0,0.0,0.0,-1.00,0.01,0.01,1.00000,0.00000,0.00007,-0.00003,0.047,0.0070
2024,12,8,13:25:58.282,-1.444,24,0.0,0.1,0.0,-0.99,0.03,0.00,1.00000,0.00000,0.00007,0.00000,0.047,0.0090
2024,12,8,13:25:58.284,-1.442,26,0.0,0.0,0.0,-0.99,0.02,0.01,1.00000,0.00000,0.00007,0.00000,0.047,0.0110
2024,12,8,13:25:58.286,-1.440,28,0.0,0.0,0.0,-1.00,0.02,0.01,1.00000,0.00000,0.00007,0.00000,0.047,0.0090
2024,12,8,13:25:58.288,-1.438,30,0.0,0.0,0.0,-0.99,0.03,0.00,1.00000,0.00000,0.00007,0.00000,0.047,0.0040
2024,12,8,13:25:58.290,-1.436,32,0.0,-0.1,0.0,-1.00,0.02,0.01,1.00000,0.00000,0.00007,0.00000,0.047,0.0070
2024,12,8,13:25:58.292,-1.434,34,0.0,0.0,0.0,-0.99,0.02,0.01,1.00000,0.00000,0.00007,0.00000,0.047,0.0060
2024,12,8,13:25:58.294,-1.432,36,0.0,-0.1,0.0,-0.99,0.02,0.01,1.00000,0.00000,0.00007,0.00000,0.047,0.0030
2024,12,8,13:25:58.296,-1.430,38,0.0,0.0,0.0,-0.99,0.02,0.01,1.00000,0.00000,0.00007,0.00000,0.047,0.0000
2024,12,8,13:25:58.298,-1.428,40,-0.1,0.0,0.0,-0.99,0.02,0.01,1.00000,0.00000,0.00007,0.00000,0.047,0.0000
2024,12,8,13:25:58.300,-1.426,42,0.0,0.1,0.0,-1.00,0.02,0.01,1.00000,0.00000,0.00007,0.00000,0.047,0.0010
2024,12,8,13:25:58.302,-1.424,44,0.0,0.0,0.0,-0.99,0.02,0.01,1.00000,0.00000,0.00007,0.00000,0.047,0.0000
2024,12,8,13:25:58.304,-1.422,46,0.0,0.0,0.0,-0.99,0.01,0.00,1.00000,0.00000,0.00007,0.00000,0.047,0.0000
2024,12,8,13:25:58.306,-1.420,48,0.0,0.0,-0.1,-1.00,0.02,0.01,1.00000,0.00000,0.00007,0.00000,0.047,0.0000
2024,12,8,13:25:58.308,-1.418,50,0.0,0.0,0.0,-0.99,0.02,0.01,1.00000,0.00000,0.00007,0.00000,0.047,0.0040
2024,12,8,13:25:58.310,-1.416,52,-0.1,0.0,-0.1,-0.99,0.02,0.01,1.00000,0.00000,0.00007,0.00000,0.047,0.0040
2024,12,8,13:25:58.312,-1.414,54,0.0,0.0,0.0,-0.99,0.02,0.01,1.00000,0.00000,0.00007,0.00000,0.047,0.0000
2024,12,8,13:25:58.314,-1.412,56,0.0,-0.1,0.0,-0.99,0.01,0.01,1.00000,0.00000,0.00007,0.00000,0.047,0.0000
2024,12,8,13:25:58.316,-1.410,58,-0.1,0.1,0.0,-0.99,0.03,0.00,1.00000,0.00000,0.00007,0.00000,0.047,0.0030
2024,12,8,13:25:58.318,-1.408,60,0.0,0.0,0.0,-0.99,0.03,0.01,1.00000,0.00000,0.00007,0.00000,0.047,0.0000
2024,12,8,13:25:58.320,-1.406,62,0.0,-0.1,0.0,-1.00,0.03,0.00,1.00000,0.00000,0.00007,0.00000,0.047,0.0000
2024,12,8,13:25:58.322,-1.404,64,-0.1,0.0,0.0,-0.99,0.03,0.01,1.00000,0.00000,0.00007,0.00000,0.047,0.0040
2024,12,8,13:25:58.324,-1.402,66,0.0,0.0,0.0,-1.00,0.02,0.01,1.00000,0.00000,0.00007,0.00000,0.047,0.0010
2024,12,8,13:25:58.326,-1.400,68,0.0,0.0,0.0,-0.99,0.03,0.00,1.00000,0.00000,0.00007,0.00000,0.047,0.0030
2024,12,8,13:25:58.328,-1.398,70,0.0,0.0,0.0,-0.99,0.03,0.01,1.00000,0.00000,0.00007,0.00000,0.047,0.0090
2024,12,8,13:25:58.330,-1.396,72,0.1,0.0,0.0,-0.99,0.02,0.01,1.00000,0.00000,0.00007,0.00000,0.047,0.0120
2024,12,8,13:25:58.332,-1.394,74,0.0,0.0,0.1,-0.99,0.02,0.01,1.00000,0.00000,0.00007,0.00000,0.047,0.0140
2024,12,8,13:25:58.334,-1.392,76,0.2,-0.2,0.0,-0.99,0.03,0.00,1.00000,0.00000,0.00007,0.00000,0.047,0.0140
2024,12,8,13:25:58.336,-1.390,78,0.0,0.0,0.1,-1.00,0.03,0.01,1.00000,0.00000,0.00007,0.00000,0.047,0.0120
2024,12,8,13:25:58.338,-1.388,80,0.1,0.0,0.0,-0.99,0.03,0.01,1.00000,0.00000,0.00007,0.00000,0.047,0.0140
2024,12,8,13:25:58.340,-1.386,82,0.1,0.0,0.0,-0.99,0.02,0.01,1.00000,0.00000,0.00007,0.00000,0.047,0.0170
2024,12,8,13:25:58.342,-1.384,84,0.0,0.0,0.0,-1.00,0.02,0.00,1.00000,0.00000,0.00007,0.00000,0.047,0.0140
2024,12,8,13:25:58.344,-1.382,86,0.0,0.0,0.0,-1.00,0.02,0.01,1.00000,0.00000,0.00007,0.00000,0.047,0.0140
2024,12,8,13:25:58.346,-1.380,88,0.0,0.0,0.0,-1.00,0.02,0.01,1.00000,0.00000,0.00007,0.00000,0.047,0.0090
2024,12,8,13:25:58.348,-1.378,90,-0.1,0.0,0.2,-1.00,0.02,0.01,1.00000,0.00000,0.00007,0.00000,0.047,0.0030
2024,12,8,13:25:58.350,-1.376,92,0.0,0.0,0.2,-1.00,0.02,0.01,1.00000,0.00000,0.00007,0.00000,0.046,0.0030
2024,12,8,13:25:58.352,-1.374,94,0.1,0.0,0.1,-1.00,0.02,0.01,1.00000,0.00003,0.00007,0.00000,0.047,0.0070
2024,12,8,13:25:58.354,-1.372,96,0.0,-0.1,0.0,-0.99,0.02,0.01,1.00000,0.00003,0.00007,0.00000,0.047,0.0070
2024,12,8,13:25:58.356,-1.370,98,0.0,-0.1,0.0,-1.00,0.02,0.02,1.00000,0.00003,0.00007,0.00000,0.047,0.0000
2024,12,8,13:25:58.358,-1.368,100,0.0,-0.1,0.2,-1.00,0.02,0.00,1.00000,0.00003,0.00007,0.00000,0.047,0.0000
2024,12,8,13:25:58.360,-1.366,102,0.0,0.0,-0.1,-0.99,0.03,0.00,1.00000,0.00003,0.00007,0.00000,0.047,0.0000
2024,12,8,13:25:58.362,-1.364,104,-0.1,0.0,-0.1,-0.99,0.02,0.00,1.00000,0.00000,0.00007,0.00000,0.047,0.0040
2024,12,8,13:25:58.364,-1.362,106,-0.1,-0.2,0.0,-1.00,0.02,0.01,1.00000,0.00000,0.00007,0.00000,0.047,0.0070
2024,12,8,13:25:58.366,-1.360,108,0.0,0.0,0.1,-0.99,0.02,0.00,1.00000,0.00000,0.00007,0.00000,0.047,0.0110
2024,12,8,13:25:58.368,-1.358,110,0.0,0.0,0.0,-0.99,0.03,0.01,1.00000,0.00000,0.00007,0.00000,0.047,0.0070
2024,12,8,13:25:58.370,-1.356,112,0.0,0.1,0.0,-0.98,0.02,0.01,1.00000,0.00000,0.00007,0.00000,0.047,0.0010
2024,12,8,13:25:58.372,-1.354,114,-0.1,0.0,0.0,-1.01,0.02,0.01,1.00000,0.00000,0.00007,0.00000,0.047,0.0040
2024,12,8,13:25:58.374,-1.352,116,0.0,0.1,0.0,-1.00,0.03,0.01,1.00000,0.00000,0.00007,0.00000,0.047,0.0190
2024,12,8,13:25:58.376,-1.350,118,-0.1,0.0,0.0,-1.00,0.02,0.00,1.00000,0.00000,0.00007,0.00000,0.047,0.0110
2024,12,8,13:25:58.378,-1.348,120,0.0,0.0,0.0,-0.99,0.03,0.01,1.00000,0.00000,0.00007,0.00000,0.047,0.0090
2024,12,8,13:25:58.380,-1.346,122,0.0,0.0,0.0,-1.00,0.02,0.01,1.00000,0.00000,0.00007,0.00000,0.047,0.0000
2024,12,8,13:25:58.382,-1.344,124,0.0,0.0,0.0,-1.00,0.03,0.00,1.00000,0.00000,0.00007,0.00000,0.047,0.0070
2024,12,8,13:25:58.384,-1.342,126,0.0,0.0,0.1,-1.00,0.03,0.01,1.00000,0.00000,0.00007,0.00000,0.047,0.0120
2024,12,8,13:25:58.386,-1.340,128,0.0,0.0,0.0,-0.99,0.03,0.00,1.00000,0.00000,0.00007,0.00000,0.047,0.0140
2024,12,8,13:25:58.388,-1.338,130,0.0,0.0,0.0,-0.99,0.03,0.01,1.00000,0.00000,0.00007,0.00000,0.047,0.0120
2024,12,8,13:25:58.390,-1.336,132,0.0,0.0,0.0,-1.00,0.03,0.01,1.00000,0.00000,0.00007,0.00000,0.047,0.0150
2024,12,8,13:25:58.392,-1.334,134,0.0,-0.2,0.0,-1.00,0.02,0.02,1.00000,0.00000,0.00000,0.00000,0.047,0.0110
2024,12,8,13:25:58.394,-1.332,136,0.0,0.0,0.0,-0.99,0.03,0.01,1.00000,0.00000,0.00000,0.00000,0.047,0.0060
2024,12,8,13:25:58.396,-1.330,138,0.0,0.0,0.0,-0.99,0.03,0.01,1.00000,0.00000,0.00000,0.00000,0.047,0.0040
2024,12,8,13:25:58.398,-1.328,140,0.1,0.0,-0.1,-0.99,0.03,0.01,1.00000,0.00000,0.00000,0.00000,0.047,0.0090
2024,12,8,13:25:58.400,-1.326,142,0.0,0.0,0.0,-0.99,0.01,0.01,1.00000,0.00000,0.00000,0.00000,0.047,0.0090
2024,12,8,13:25:58.402,-1.324,144,0.1,0.0,0.0,-0.99,0.02,0.00,1.00000,0.00000,0.00000,0.00000,0.048,0.0140
2024,12,8,13:25:58.404,-1.322,146,0.0,0.0,0.0,-1.00,0.02,0.01,1.00000,0.00000,0.00000,0.00000,0.047,0.0070
2024,12,8,13:25:58.406,-1.320,148,0.1,0.0,0.0,-0.99,0.02,0.00,1.00000,0.00000,0.00000,0.00000,0.047,0.0040
2024,12,8,13:25:58.408,-1.318,150,0.0,-0.1,0.0,-0.99,0.02,0.01,1.00000,0.00000,0.00000,0.00000,0.047,0.0000
2024,12,8,13:25:58.410,-1.316,152,0.1,0.0,0.0,-0.99,0.03,0.00,1.00000,0.00000,0.00000,0.00000,0.047,0.0030
2024,12,8,13:25:58.412,-1.314,154,0.0,-0.1,0.0,-1.00,0.02,0.01,1.00000,0.00000,0.00000,0.00000,0.047,0.0060
2024,12,8,13:25:58.414,-1.312,156,0.1,0.0,0.0,-0.99,0.03,0.00,1.00000,0.00000,0.00000,0.00000,0.047,0.0040
2024,12,8,13:25:58.416,-1.310,158,0.0,0.0,0.0,-0.99,0.03,0.01,1.00000,0.00000,0.00000,0.00000,0.047,0.0040
2024,12,8,13:25:58.418,-1.308,160,0.0,0.0,0.0,-0.99,0.03,0.01,1.00000,0.00000,0.00000,0.00000,0.047,0.0090
2024,12,8,13:25:58.420,-1.306,162,0.0,0.0,0.0,-1.00,0.03,0.00,1.00000,0.00000,0.00000,0.00000,0.047,0.0040
2024,12,8,13:25:58.422,-1.304,164,0.0,-0.1,0.0,-0.99,0.02,0.01,1.00000,0.00000,0.00000,0.00000,0.047,0.0070
2024,12,8,13:25:58.424,-1.302,166,0.0,-0.2,0.0,-0.99,0.02,0.01,1.00000,0.00000,0.00000,0.00000,0.047,0.0090
2024,12,8,13:25:58.426,-1.300,168,0.0,-0.1,0.0,-0.99,0.02,0.02,1.00000,0.00000,0.00000,0.00000,0.047,0.0090
2024,12,8,13:25:58.428,-1.298,170,0.0,0.0,-0.1,-1.00,0.01,0.01,1.00000,0.00000,0.00000,0.00000,0.047,0.0090
2024,12,8,13:25:58.430,-1.296,172,0.0,-0.1,0.0,-1.00,0.02,0.01,1.00000,0.00000,0.00000,0.00000,0.047,0.0120
2024,12,8,13:25:58.432,-1.294,174,0.0,0.0,0.0,-1.00,0.02,0.01,1.00000,0.00000,0.00000,0.00000,0.047,0.0070
2024,12,8,13:25:58.434,-1.292,176,-0.1,0.1,0.0,-0.99,0.02,0.01,1.00000,0.00000,0.00000,0.00000,0.047,0.0040
2024,12,8,13:25:58.436,-1.290,178,-0.1,0.0,0.0,-0.99,0.02,0.01,1.00000,0.00000,0.00000,0.00000,0.047,0.0090
2024,12,8,13:25:58.438,-1.288,180,-0.1,-0.1,0.1,-1.00,0.02,0.00,1.00000,0.00000,0.00000,0.00000,0.047,0.0040
2024,12,8,13:25:58.440,-1.286,182,-0.1,0.0,0.0,-0.99,0.02,0.01,1.00000,0.00000,0.00000,0.00000,0.047,0.0150
2024,12,8,13:25:58.442,-1.284,184,-0.1,0.0,0.0,-0.99,0.03,0.00,1.00000,0.00000,0.00000,0.00000,0.047,0.0110
2024,12,8,13:25:58.444,-1.282,186,0.0,0.0,0.0,-1.00,0.02,0.01,1.00000,0.00000,0.00000,0.00000,0.047,0.0110
2024,12,8,13:25:58.446,-1.280,188,0.0,0.0,0.0,-0.99,0.03,0.01,1.00000,0.00000,0.00000,0.00000,0.047,0.0140
2024,12,8,13:25:58.448,-1.278,190,0.0,0.0,0.0,-0.99,0.03,0.01,1.00000,0.00000,0.00000,0.00000,0.047,0.0150
2024,12,8,13:25:58.450,-1.276,192,-0.1,0.0,0.0,-0.99,0.03,0.01,1.00000,0.00000,0.00000,0.00000,0.047,0.0140
2024,12,8,13:25:58.452,-1.274,194,0.0,0.0,0.0,-0.99,0.03,0.01,1.00000,0.00000,0.00000,0.00000,0.047,0.0030
2024,12,8,13:25:58.454,-1.272,196,-0.1,0.0,0.0,-0.99,0.03,0.01,1.00000,0.00000,0.00000,0.00000,0.047,0.0090
2024,12,8,13:25:58.456,-1.270,198,0.0,0.0,0.0,-0.99,0.02,0.01,1.00000,0.00000,0.00000,0.00000,0.047,0.0040
2024,12,8,13:25:58.458,-1.268,200,0.0,0.0,0.0,-0.99,0.03,0.01,1.00000,0.00000,0.00000,0.00000,0.047,0.0040
2024,12,8,13:25:58.460,-1.266,202,0.0,0.0,0.0,-0.99,0.02,0.01,1.00000,0.00000,0.00000,0.00000,0.047,0.0110
2024,12,8,13:25:58.462,-1.264,204,0.0,0.0,0.0,-0.99,0.02,0.01,1.00000,0.00000,0.00000,0.00000,0.046,0.0070
2024,12,8,13:25:58.464,-1.262,206,0.0,0.0,0.0,-0.99,0.02,0.01,1.00000,0.00000,0.00000,0.00000,0.047,0.0120
2024,12,8,13:25:58.466,-1.260,208,0.0,0.0,0.0,-1.00,0.03,0.01,1.00000,0.00000,0.00000,0.00000,0.047,0.0120
2024,12,8,13:25:58.468,-1.258,210,0.0,-0.1,0.0,-0.99,0.03,0.01,1.00000,0.00000,0.00000,0.00000,0.047,0.0000
2024,12,8,13:25:58.470,-1.256,212,0.0,0.0,0.0,-0.99,0.02,0.01,1.00000,0.00000,0.00000,0.00000,0.047,0.0010
2024,12,8,13:25:58.472,-1.254,214,0.0,-0.1,0.0,-1.00,0.02,0.01,1.00000,0.00000,0.00000,0.00000,0.047,0.0040
2024,12,8,13:25:58.474,-1.252,216,0.0,0.0,0.0,-1.00,0.03,0.00,1.00000,0.00000,0.00000,0.00000,0.047,0.0090
2024,12,8,13:25:58.476,-1.250,218,-0.1,0.0,0.0,-0.99,0.03,0.01,1.00000,0.00000,0.00000,0.00000,0.047,0.0060
2024,12,8,13:25:58.478,-1.248,220,0.0,0.0,0.0,-0.99,0.03,0.01,1.00000,0.00000,0.00000,0.00000,0.047,0.0120
2024,12,8,13:25:58.480,-1.246,222,0.0,0.0,0.0,-0.99,0.03,0.01,1.00000,0.00000,0.00000,0.00000,0.047,0.0070
2024,12,8,13:25:58.482,-1.244,224,0.0,0.0,0.0,-1.00,0.03,0.00,1.00000,0.00000,0.00000,0.00000,0.047,0.0090
2024,12,8,13:25:58.484,-1.242,226,0.1,0.0,-0.1,-0.99,0.03,0.00,1.00000,0.00000,0.00000,0.00000,0.047,0.0110
2024,12,8,13:25:58.486,-1.240,228,0.0,0.0,-0.1,-0.99,0.03,0.01,1.00000,0.00000,0.00000,0.00000,0.047,0.0060
2024,12,8,13:25:58.488,-1.238,230,0.0,0.0,-0.1,-1.00,0.02,0.00,1.00000,0.00000,0.00000,0.00000,0.047,0.0110
2024,12,8,13:25:58.490,-1.236,232,0.0,0.0,0.0,-1.00,0.03,0.01,1.00000,0.00000,0.00000,0.00000,0.047,0.0090
2024,12,8,13:25:58.492,-1.234,234,0.0,0.0,0.0,-0.99,0.03,0.01,1.00000,0.00000,0.00000,0.00000,0.047,0.0040
2024,12,8,13:25:58.494,-1.232,236,0.0,-0.1,0.0,-0.99,0.03,0.01,1.00000,0.00000,-0.00003,0.00000,0.047,0.0070
2024,12,8,13:25:58.496,-1.230,238,-0.1,0.0,0.0,-0.99,0.03,0.02,1.00000,0.00000,-0.00003,0.00000,0.047,0.0140
2024,12,8,13:25:58.498,-1.228,240,0.1,0.0,0.0,-0.99,0.02,0.01,1.00000,0.00000,-0.00003,0.00000,0.047,0.0110
2024,12,8,13:25:58.500,-1.226,242,-0.1,0.0,0.0,-0.99,0.04,0.02,1.00000,0.00000,-0.00003,0.00000,0.047,0.0090
2024,12,8,13:25:58.502,-1.224,244,0.0,0.0,0.0,-1.00,0.03,0.01,1.00000,0.00000,-0.00003,0.00000,0.047,0.0060
2024,12,8,13:25:58.504,-1.222,246,0.0,0.0,0.0,-1.00,0.02,0.01,1.00000,0.00000,-0.00003,0.00000,0.047,0.0110
2024,12,8,13:25:58.506,-1.220,248,-0.1,0.0,0.0,-0.99,0.02,0.01,1.00000,0.00000,-0.00003,0.00000,0.047,0.0170
2024,12,8,13:25:58.508,-1.218,0,-0.1,0.0,0.0,-0.99,0.03,0.01,1.00000,0.00000,-0.00003,0.00000,0.047,0.0090
2024,12,8,13:25:58.510,-1.216,2,-0.1,-0.1,0.0,-1.00,0.03,0.02,1.00000,0.00000,-0.00003,0.00000,0.047,0.0060
2024,12,8,13:25:58.512,-1.214,4,0.0,0.0,0.0,-1.00,0.04,0.01,1.00000,0.00000,-0.00003,0.00000,0.047,0.0060
2024,12,8,13:25:58.514,-1.212,6,0.0,0.0,0.0,-1.00,0.02,0.01,1.00000,0.00000,-0.00003,0.00000,0.047,0.0040
2024,12,8,13:25:58.516,-1.210,8,0.0,0.0,0.0,-1.00,0.02,0.02,1.00000,0.00000,-0.00003,0.00000,0.047,0.0000
2024,12,8,13:25:58.518,-1.208,10,0.0,0.0,0.0,-0.99,0.02,0.01,1.00000,0.00000,-0.00003,0.00000,0.047,0.0060
2024,12,8,13:25:58.520,-1.206,12,0.0,0.0,0.0,-0.99,0.03,0.00,1.00000,0.00000,-0.00003,0.00000,0.047,0.0010
2024,12,8,13:25:58.522,-1.204,14,0.0,0.0,0.0,-1.00,0.03,0.01,1.00000,0.00000,-0.00003,0.00000,0.047,0.0060
2024,12,8,13:25:58.524,-1.202,16,0.0,0.0,0.0,-0.99,0.03,0.01,1.00000,0.00000,-0.00003,0.00000,0.047,0.0000
2024,12,8,13:25:58.526,-1.200,18,0.0,0.0,0.0,-0.99,0.02,0.00,1.00000,0.00000,-0.00003,0.00000,0.047,0.0010
2024,12,8,13:25:58.528,-1.198,20,0.0,0.0,0.0,-0.99,0.03,0.01,1.00000,0.00000,-0.00003,0.00000,0.047,0.0060
2024,12,8,13:25:58.530,-1.196,22,0.0,0.0,-0.1,-1.00,0.03,0.00,1.00000,0.00000,-0.00003,0.00000,0.047,0.0030
2024,12,8,13:25:58.532,-1.194,24,0.1,0.0,0.0,-0.98,0.03,0.01,1.00000,0.00000,-0.00003,0.00000,0.047,0.0060
2024,12,8,13:25:58.534,-1.192,26,0.0,0.0,0.0,-0.99,0.04,0.01,1.00000,0.00000,-0.00003,0.00000,0.047,0.0010
2024,12,8,13:25:58.536,-1.190,28,0.0,-0.1,0.0,-0.99,0.02,0.02,1.00000,0.00000,-0.00003,0.00000,0.047,0.0060
2024,12,8,13:25:58.538,-1.188,30,0.0,0.0,0.0,-1.00,0.01,0.00,1.00000,0.00000,-0.00003,0.00000,0.047,0.0060
2024,12,8,13:25:58.540,-1.186,32,0.1,-0.2,0.0,-1.00,0.03,0.01,1.00000,0.00000,-0.00003,0.00000,0.047,0.0040
2024,12,8,13:25:58.542,-1.184,34,0.0,0.0,0.0,-1.01,0.03,0.01,1.00000,0.00000,-0.00003,0.00000,0.047,0.0040
2024,12,8,13:25:58.544,-1.182,36,0.1,-0.1,0.0,-0.99,0.03,0.02,1.00000,0.00000,-0.00003,0.00000,0.047,0.0040
2024,12,8,13:25:58.546,-1.180,38,0.0,0.0,0.0,-1.00,0.03,0.01,1.00000,0.00000,-0.00003,0.00000,0.047,0.0110
2024,12,8,13:25:58.548,-1.178,40,0.0,0.1,0.0,-1.00,0.02,0.01,1.00000,0.00000,-0.00003,0.00000,0.047,0.0030
2024,12,8,13:25:58.550,-1.176,42,0.0,0.0,0.0,-1.00,0.02,0.01,1.00000,0.00000,-0.00003,0.00000,0.047,0.0090
2024,12,8,13:25:58.552,-1.174,44,0.0,-0.1,-0.1,-0.99,0.02,0.01,1.00000,0.00000,-0.00003,0.00000,0.047,0.0030
2024,12,8,13:25:58.554,-1.172,46,0.0,0.0,0.0,-0.99,0.02,0.01,1.00000,0.00000,-0.00003,0.00000,0.048,0.0060
2024,12,8,13:25:58.556,-1.170,48,0.0,0.0,0.0,-0.99,0.02,0.01,1.00000,0.00000,-0.00003,0.00000,0.047,0.0070
2024,12,8,13:25:58.558,-1.168,50,0.0,0.0,0.0,-0.99,0.02,0.01,1.00000,0.00000,-0.00003,0.00000,0.047,0.0030
2024,12,8,13:25:58.560,-1.166,52,0.0,0.0,0.0,-1.00,0.02,0.01,1.00000,0.00000,-0.00003,0.00000,0.047,0.0060
2024,12,8,13:25:58.562,-1.164,54,0.0,0.0,0.0,-0.99,0.02,0.00,1.00000,0.00000,-0.00003,0.00000,0.047,0.0040
2024,12,8,13:25:58.564,-1.162,56,-0.1,-0.1,0.0,-0.99,0.02,0.00,1.00000,0.00000,-0.00003,0.00000,0.047,0.0040
2024,12,8,13:25:58.566,-1.160,58,-0.1,0.0,-0.1,-0.99,0.02,0.00,1.00000,0.00000,-0.00003,0.00000,0.047,0.0060
2024,12,8,13:25:58.568,-1.158,60,-0.1,-0.1,0.0,-1.00,0.03,0.01,1.00000,0.00000,-0.00003,0.00000,0.047,0.0120
2024,12,8,13:25:58.570,-1.156,62,-0.1,0.0,0.0,-1.00,0.03,0.00,1.00000,0.00000,-0.00003,0.00000,0.047,0.0070
2024,12,8,13:25:58.572,-1.154,64,-0.2,0.0,0.0,-0.99,0.03,0.01,1.00000,0.00000,-0.00003,0.00000,0.047,0.0040
2024,12,8,13:25:58.574,-1.152,66,-0.1,0.0,0.0,-0.99,0.03,0.01,1.00000,0.00000,-0.00003,0.00000,0.047,0.0060
2024,12,8,13:25:58.576,-1.150,68,0.0,0.0,-0.1,-0.99,0.02,0.01,1.00000,0.00000,-0.00003,0.00000,0.047,0.0110
2024,12,8,13:25:58.578,-1.148,70,0.0,0.0,-0.1,-1.00,0.02,0.01,1.00000,0.00000,-0.00003,0.00000,0.047,0.0040
2024,12,8,13:25:58.580,-1.146,72,0.0,0.0,0.0,-0.99,0.03,0.01,1.00000,0.00000,-0.00003,0.00000,0.047,0.0010
2024,12,8,13:25:58.582,-1.144,74,0.0,0.0,-0.1,-1.00,0.04,0.01,1.00000,0.00000,-0.00003,0.00000,0.047,0.0060
2024,12,8,13:25:58.584,-1.142,76,0.0,0.0,-0.1,-1.00,0.02,0.01,1.00000,0.00000,-0.00003,0.00000,0.047,0.0010
2024,12,8,13:25:58.586,-1.140,78,0.0,-0.1,0.0,-1.00,0.03,0.01,1.00000,0.00000,-0.00003,0.00000,0.047,0.0060
2024,12,8,13:25:58.588,-1.138,80,0.0,0.0,0.0,-1.00,0.03,0.01,1.00000,0.00000,-0.00003,0.00000,0.047,0.0000
2024,12,8,13:25:58.590,-1.136,82,0.0,0.1,0.0,-0.99,0.02,0.01,1.00000,0.00000,-0.00003,0.00000,0.048,0.0040
2024,12,8,13:25:58.592,-1.134,84,0.0,0.0,0.0,-1.00,0.03,0.01,1.00000,0.00000,-0.00003,0.00000,0.047,0.0110
2024,12,8,13:25:58.594,-1.132,86,0.0,0.0,0.0,-1.00,0.02,0.01,1.00000,0.00000,-0.00003,0.00000,0.047,0.0120
2024,12,8,13:25:58.596,-1.130,88,0.0,0.0,0.0,-1.00,0.03,0.01,1.00000,0.00000,-0.00003,0.00000,0.047,0.0070
2024,12,8,13:25:58.598,-1.128,90,0.0,0.0,-0.1,-1.00,0.03,0.01,1.00000,0.00000,-0.00003,0.00000,0.047,0.0140
2024,12,8,13:25:58.600,-1.126,92,0.0,0.0,-0.1,-1.00,0.02,0.01,1.00000,0.00000,-0.00003,0.00000,0.047,0.0060
2024,12,8,13:25:58.602,-1.124,94,0.0,0.0,0.0,-0.99,0.02,0.01,1.00000,0.00000,-0.00003,0.00000,0.047,0.0090
2024,12,8,13:25:58.604,-1.122,96,0.2,0.0,-0.1,-0.99,0.02,0.01,1.00000,0.00000,-0.00003,0.00000,0.047,0.0170
2024,12,8,13:25:58.606,-1.120,98,0.0,0.0,0.0,-1.00,0.03,0.01,1.00000,0.00000,-0.00003,0.00000,0.047,0.0170
2024,12,8,13:25:58.608,-1.118,100,0.0,0.0,0.0,-0.98,0.02,0.01,1.00000,0.00000,-0.00003,0.00000,0.047,0.0110
2024,12,8,13:25:58.610,-1.116,102,0.0,0.0,0.0,-1.00,0.03,0.02,1.00000,0.00000,-0.00003,0.00000,0.047,0.0120
2024,12,8,13:25:58.612,-1.114,104,0.0,0.0,0.0,-1.00,0.02,0.02,1.00000,0.00000,-0.00003,0.00000,0.047,0.0110
2024,12,8,13:25:58.614,-1.112,106,0.0,0.0,-0.1,-1.00,0.02,0.00,1.00000,0.00000,-0.00003,0.00000,0.047,0.0090
2024,12,8,13:25:58.616,-1.110,108,0.0,-0.1,0.0,-0.99,0.02,0.02,1.00000,0.00000,-0.00003,0.00000,0.047,0.0140
2024,12,8,13:25:58.618,-1.108,110,0.0,0.0,0.0,-0.99,0.02,0.01,1.00000,0.00000,-0.00003,0.00000,0.047,0.0110
2024,12,8,13:25:58.620,-1.106,112,0.0,-0.1,0.0,-1.00,0.02,0.02,1.00000,0.00000,-0.00003,0.00000,0.047,0.0110
2024,12,8,13:25:58.622,-1.104,114,0.0,0.0,0.0,-1.00,0.03,0.01,1.00000,0.00000,-0.00003,0.00000,0.047,0.0030
2024,12,8,13:25:58.624,-1.102,116,0.0,0.0,0.0,-0.99,0.01,0.01,1.00000,0.00000,-0.00003,0.00000,0.047,0.0090
2024,12,8,13:25:58.626,-1.100,118,-0.1,0.0,0.0,-1.00,0.02,0.02,1.00000,0.00000,-0.00003,0.00000,0.048,0.0090
2024,12,8,13:25:58.628,-1.098,120,-0.1,0.0,-0.1,-0.99,0.02,0.00,1.00000,0.00000,-0.00003,0.00000,0.047,0.0110
2024,12,8,13:25:58.630,-1.096,122,-0.1,-0.1,0.0,-1.00,0.02,0.02,1.00000,0.00000,-0.00003,0.00000,0.047,0.0070
2024,12,8,13:25:58.632,-1.094,124,0.0,0.0,0.0,-0.99,0.02,0.00,1.00000,0.00000,-0.00003,0.00000,0.047,0.0060
2024,12,8,13:25:58.634,-1.092,126,-0.1,0.0,-0.1,-0.99,0.02,0.01,1.00000,0.00000,-0.00003,0.00000,0.047,0.0060
2024,12,8,13:25:58.636,-1.090,128,-0.1,0.0,0.0,-1.00,0.02,0.00,1.00000,0.00000,-0.00003,0.00000,0.047,0.0030
2024,12,8,13:25:58.638,-1.088,130,0.0,0.0,0.0,-1.00,0.03,0.01,1.00000,0.00000,-0.00003,0.00000,0.047,0.0060
2024,12,8,13:25:58.640,-1.086,132,0.0,0.0,-0.1,-1.00,0.02,0.02,1.00000,0.00000,-0.00003,0.00000,0.047,0.0060
2024,12,8,13:25:58.642,-1.084,134,0.0,0.1,-0.1,-1.00,0.02,0.01,1.00000,0.00000,-0.00003,0.00000,0.047,0.0000
2024,12,8,13:25:58.644,-1.082,136,-0.1,-0.1,0.0,-0.99,0.03,0.01,1.00000,0.00000,-0.00003,0.00000,0.047,0.0060
2024,12,8,13:25:58.646,-1.080,138,0.0,0.0,0.0,-1.00,0.03,0.01,1.00000,0.00000,-0.00003,0.00000,0.047,0.0040
2024,12,8,13:25:58.648,-1.078,140,0.0,0.0,0.0,-1.00,0.03,0.01,1.00000,0.00000,-0.00003,0.00000,0.047,0.0040
2024,12,8,13:25:58.650,-1.076,142,0.0,0.0,-0.1,-1.00,0.02,0.02,1.00000,0.00000,-0.00003,0.00000,0.047,0.0040
2024,12,8,13:25:58.652,-1.074,144,0.0,0.0,0.0,-1.00,0.02,0.00,1.00000,0.00000,-0.00003,0.00000,0.047,0.0000
2024,12,8,13:25:58.654,-1.072,146,0.0,-0.1,0.0,-1.00,0.02,0.01,1.00000,0.00000,-0.00003,0.00000,0.047,0.0040
2024,12,8,13:25:58.656,-1.070,148,0.0,0.1,0.0,-0.99,0.02,0.00,1.00000,0.00000,-0.00003,0.00000,0.047,0.0150
2024,12,8,13:25:58.658,-1.068,150,0.0,0.0,-0.1,-1.00,0.03,0.02,1.00000,0.00000,-0.00003,0.00000,0.047,0.0030
2024,12,8,13:25:58.660,-1.066,152,0.0,0.2,0.0,-1.00,0.02,0.00,1.00000,0.00000,-0.00003,0.00000,0.047,0.0000
2024,12,8,13:25:58.662,-1.064,154,0.0,0.0,-0.1,-0.99,0.02,0.01,1.00000,0.00000,-0.00003,0.00000,0.046,0.0000
2024,12,8,13:25:58.664,-1.062,156,0.1,0.1,0.0,-0.99,0.02,0.00,1.00000,0.00000,-0.00003,0.00000,0.047,0.0000
2024,12,8,13:25:58.666,-1.060,158,0.0,0.0,0.0,-1.00,0.02,0.02,1.00000,0.00000,-0.00003,0.00000,0.047,0.0030
2024,12,8,13:25:58.668,-1.058,160,0.0,0.0,0.0,-0.99,0.04,0.02,1.00000,0.00000,-0.00003,0.00000,0.047,0.0030
2024,12,8,13:25:58.670,-1.056,162,0.2,0.0,-0.1,-0.99,0.02,0.00,1.00000,0.00000,-0.00003,0.00000,0.047,0.0000
2024,12,8,13:25:58.672,-1.054,164,0.0,0.0,0.0,-1.00,0.03,0.02,1.00000,0.00000,-0.00003,0.00000,0.047,0.0060
2024,12,8,13:25:58.674,-1.052,166,0.0,0.0,0.0,-0.99,0.02,0.00,1.00000,0.00000,-0.00003,0.00000,0.047,0.0070
2024,12,8,13:25:58.676,-1.050,168,0.0,0.0,0.0,-1.00,0.02,0.01,1.00000,0.00000,-0.00003,0.00000,0.047,0.0060
2024,12,8,13:25:58.678,-1.048,170,0.2,0.0,-0.1,-0.99,0.02,0.02,1.00000,0.00000,-0.00003,0.00000,0.047,0.0060
2024,12,8,13:25:58.680,-1.046,172,0.1,0.2,0.0,-1.00,0.02,0.01,1.00000,0.00000,-0.00003,0.00000,0.047,0.0090
2024,12,8,13:25:58.682,-1.044,174,0.0,0.0,0.0,-0.99,0.02,0.02,1.00000,0.00000,-0.00003,0.00000,0.047,0.0040
2024,12,8,13:25:58.684,-1.042,176,0.1,0.0,0.1,-0.99,0.02,0.01,1.00000,0.00000,-0.00003,0.00000,0.047,0.0040
2024,12,8,13:25:58.686,-1.040,178,0.0,0.0,0.0,-0.99,0.02,0.02,1.00000,0.00000,-0.00003,0.00000,0.047,0.0070
2024,12,8,13:25:58.688,-1.038,180,0.0,0.0,0.0,-1.00,0.02,0.01,1.00000,0.00000,-0.00003,0.00000,0.047,0.0000
2024,12,8,13:25:58.690,-1.036,182,-0.1,0.1,-0.1,-0.99,0.02,0.02,1.00000,0.00000,-0.00003,0.00000,0.047,0.0060
2024,12,8,13:25:58.692,-1.034,184,-0.1,0.1,-0.1,-0.99,0.03,0.01,1.00000,0.00000,0.00000,0.00000,0.047,0.0030
2024,12,8,13:25:58.694,-1.032,186,-0.1,0.0,0.0,-0.99,0.02,0.01,1.00000,0.00000,-0.00003,0.00000,0.047,0.0000
2024,12,8,13:25:58.696,-1.030,188,-0.2,0.0,0.0,-1.00,0.03,0.01,1.00000,0.00000,-0.00003,0.00000,0.047,0.0000
2024,12,8,13:25:58.698,-1.028,190,-0.1,0.0,0.2,-0.99,0.02,0.00,1.00000,0.00000,-0.00003,0.00000,0.047,0.0030
2024,12,8,13:25:58.700,-1.026,192,-0.1,0.1,-0.1,-0.99,0.02,0.01,1.00000,0.00000,0.00000,0.00000,0.047,0.0010
2024,12,8,13:25:58.702,-1.024,194,0.0,0.0,0.0,-0.98,0.02,0.01,1.00000,0.00000,0.00000,0.00000,0.046,0.0120
2024,12,8,13:25:58.704,-1.022,196,-0.1,0.0,0.0,-1.00,0.02,0.01,1.00000,0.00000,0.00000,0.00000,0.047,0.0030
2024,12,8,13:25:58.706,-1.020,198,-0.1,0.0,0.0,-1.00,0.02,0.01,1.00000,0.00000,0.00000,0.00000,0.047,0.0090
2024,12,8,13:25:58.708,-1.018,200,0.0,0.1,0.0,-0.99,0.03,0.00,1.00000,0.00000,0.00000,0.00000,0.047,0.0090
2024,12,8,13:25:58.710,-1.016,202,0.0,0.1,0.0,-0.99,0.03,0.01,1.00000,0.00000,0.00000,0.00000,0.047,0.0110
2024,12,8,13:25:58.712,-1.014,204,0.0,0.0,0.0,-0.99,0.02,0.02,1.00000,0.00000,0.00000,0.00000,0.047,0.0140
2024,12,8,13:25:58.714,-1.012,206,0.0,0.0,0.0,-1.00,0.02,0.01,1.00000,0.00000,0.00000,0.00000,0.047,0.0090
2024,12,8,13:25:58.716,-1.010,208,0.0,0.1,0.0,-0.99,0.03,0.02,1.00000,0.00000,0.00000,0.00000,0.047,0.0030
2024,12,8,13:25:58.718,-1.008,210,0.0,0.0,0.0,-1.00,0.02,0.00,1.00000,0.00000,0.00000,0.00000,0.047,0.0030
2024,12,8,13:25:58.720,-1.006,212,0.0,0.0,0.0,-1.00,0.02,0.02,1.00000,0.00000,0.00000,0.00000,0.047,0.0070
2024,12,8,13:25:58.722,-1.004,214,0.1,0.0,0.0,-0.99,0.03,0.00,1.00000,0.00000,0.00000,0.00000,0.047,0.0010
2024,12,8,13:25:58.724,-1.002,216,0.1,0.1,-0.1,-1.00,0.04,0.02,1.00000,0.00000,0.00000,0.00000,0.047,0.0120
2024,12,8,13:25:58.726,-1.000,218,0.2,0.1,0.0,-1.00,0.02,0.00,1.00000,0.00000,0.00000,0.00000,0.047,0.0060
2024,12,8,13:25:58.728,-0.998,220,0.0,0.0,0.0,-0.99,0.03,0.02,1.00000,0.00000,0.00000,0.00000,0.047,0.0090
2024,12,8,13:25:58.730,-0.996,222,0.2,0.0,0.1,-1.00,0.03,0.02,1.00000,0.00000,0.00000,0.00000,0.047,0.0060
2024,12,8,13:25:58.732,-0.994,224,0.0,0.0,0.0,-0.99,0.02,0.00,1.00000,0.00000,0.00000,0.00000,0.047,0.0040
2024,12,8,13:25:58.734,-0.992,226,0.0,0.0,-0.1,-1.00,0.04,0.02,1.00000,0.00000,0.00000,0.00000,0.047,0.0070
2024,12,8,13:25:58.736,-0.990,228,0.0,0.1,0.0,-0.99,0.02,0.00,1.00000,0.00000,0.00000,0.00000,0.047,0.0090
2024,12,8,13:25:58.738,-0.988,230,0.0,0.0,0.0,-0.99,0.03,0.01,1.00000,0.00000,0.00000,0.00000,0.047,0.0060
2024,12,8,13:25:58.740,-0.986,232,0.1,0.1,0.0,-1.00,0.02,0.00,1.00000,0.00000,0.00000,0.00000,0.047,0.0120
2024,12,8,13:25:58.742,-0.984,234,-0.1,0.0,0.1,-0.99,0.03,0.01,1.00000,0.00000,0.00000,0.00000,0.047,0.0120
2024,12,8,13:25:58.744,-0.982,236,0.0,0.0,0.0,-1.00,0.02,0.00,1.00000,0.00000,0.00000,0.00000,0.047,0.0120
2024,12,8,13:25:58.746,-0.980,238,0.1,-0.1,0.0,-0.99,0.01,0.01,1.00000,0.00000,0.00000,0.00000,0.047,0.0140
2024,12,8,13:25:58.748,-0.978,240,0.1,0.0,0.0,-0.99,0.02,0.00,1.00000,0.00000,0.00000,0.00000,0.047,0.0120
2024,12,8,13:25:58.750,-0.976,242,0.0,0.2,0.0,-0.99,0.02,0.02,1.00000,0.00000,0.00000,0.00000,0.047,0.0120
2024,12,8,13:25:58.752,-0.974,244,0.1,0.0,0.0,-1.00,0.02,0.01,1.00000,0.00000,0.00000,0.00000,0.047,0.0030
2024,12,8,13:25:58.754,-0.972,246,0.0,0.0,-0.1,-0.99,0.02,0.01,1.00000,0.00000,0.00000,0.00000,0.047,0.0070
2024,12,8,13:25:58.756,-0.970,248,0.0,0.0,0.0,-1.00,0.02,0.00,1.00000,0.00000,0.00000,0.00000,0.047,0.0060
2024,12,8,13:25:58.758,-0.968,0,0.0,0.0,0.0,-1.00,0.03,0.01,1.00000,0.00000,0.00000,0.00000,0.047,0.0030
2024,12,8,13:25:58.760,-0.966,2,0.0,0.0,0.0,-0.99,0.02,0.01,1.00000,0.00000,0.00000,0.00000,0.047,0.0000
2024,12,8,13:25:58.762,-0.964,4,0.0,0.0,0.0,-0.99,0.03,0.02,1.00000,0.00000,0.00000,0.00000,0.047,0.0000
2024,12,8,13:25:58.764,-0.962,6,0.0,0.2,-0.1,-1.00,0.02,0.01,1.00000,0.00000,0.00000,0.00000,0.047,0.0000
2024,12,8,13:25:58.766,-0.960,8,-0.1,0.0,-0.1,-0.99,0.03,0.02,1.00000,0.00000,0.00000,0.00000,0.047,0.0000
2024,12,8,13:25:58.768,-0.958,10,-0.1,0.2,-0.1,-0.99,0.02,0.01,1.00000,0.00000,0.00000,0.00000,0.047,0.0060
2024,12,8,13:25:58.770,-0.956,12,-0.1,0.0,0.0,-0.99,0.02,0.01,1.00000,0.00000,0.00000,0.00000,0.047,0.0030
2024,12,8,13:25:58.772,-0.954,14,-0.1,0.1,0.0,-0.99,0.02,0.01,1.00000,0.00000,0.00000,0.00000,0.047,0.0060
2024,12,8,13:25:58.774,-0.952,16,-0.1,-0.1,0.0,-0.99,0.03,0.02,1.00000,0.00000,0.00000,0.00000,0.047,0.0120
2024,12,8,13:25:58.776,-0.950,18,-0.1,0.1,0.0,-0.99,0.02,0.00,1.00000,0.00000,0.00000,0.00000,0.047,0.0060
2024,12,8,13:25:58.778,-0.948,20,0.0,0.0,-0.1,-0.99,0.02,0.01,1.00000,0.00000,0.00000,0.00000,0.047,0.0110
2024,12,8,13:25:58.780,-0.946,22,0.0,0.0,0.0,-0.99,0.03,0.00,1.00000,0.00000,0.00000,0.00000,0.047,0.0060
2024,12,8,13:25:58.782,-0.944,24,-0.1,0.0,0.0,-0.99,0.02,0.00,1.00000,0.00000,0.00000,0.00000,0.047,0.0120
2024,12,8,13:25:58.784,-0.942,26,0.0,0.1,0.0,-1.00,0.02,0.00,1.00000,0.00000,0.00000,0.00000,0.047,0.0070
2024,12,8,13:25:58.786,-0.940,28,0.0,0.0,0.0,-0.99,0.02,0.01,1.00000,0.00000,0.00000,0.00000,0.047,0.0000
2024,12,8,13:25:58.788,-0.938,30,0.0,0.0,0.0,-1.00,0.02,0.02,1.00000,0.00000,0.00000,0.00000,0.047,0.0060
2024,12,8,13:25:58.790,-0.936,32,0.1,-0.1,0.0,-0.99,0.03,0.00,1.00000,0.00000,0.00000,0.00000,0.047,0.0070
2024,12,8,13:25:58.792,-0.934,34,0.0,0.0,0.0,-1.00,0.04,0.02,1.00000,0.00000,0.00000,0.00000,0.047,0.0000
2024,12,8,13:25:58.794,-0.932,36,0.1,0.0,0.0,-0.99,0.02,0.00,1.00000,0.00000,0.00000,0.00000,0.047,0.0060
2024,12,8,13:25:58.796,-0.930,38,0.0,-0.1,0.0,-0.99,0.04,0.02,1.00000,0.00000,0.00000,0.00000,0.047,0.0000
2024,12,8,13:25:58.798,-0.928,40,0.1,0.0,0.0,-1.00,0.03,0.00,1.00000,0.00000,0.00000,0.00000,0.047,0.0090
2024,12,8,13:25:58.800,-0.926,42,0.0,-0.1,0.0,-0.99,0.03,0.02,1.00000,0.00000,0.00000,0.00000,0.047,0.0070
2024,12,8,13:25:58.802,-0.924,44,0.0,0.1,0.0,-0.99,0.03,0.00,1.00000,0.00000,0.00000,0.00000,0.047,0.0030
2024,12,8,13:25:58.804,-0.922,46,0.0,-0.1,0.0,-1.00,0.02,0.00,1.00000,0.00000,0.00000,0.00000,0.047,0.0060
2024,12,8,13:25:58.806,-0.920,48,0.0,0.0,0.0,-1.00,0.03,0.01,1.00000,0.00000,0.00000,0.00000,0.047,0.0110
2024,12,8,13:25:58.808,-0.918,50,0.0,0.0,0.0,-0.99,0.02,0.01,1.00000,0.00000,0.00000,0.00000,0.046,0.0000
2024,12,8,13:25:58.810,-0.916,52,0.0,-0.1,0.0,-1.00,0.02,0.02,1.00000,0.00000,0.00000,0.00000,0.047,0.0150
2024,12,8,13:25:58.812,-0.914,54,0.0,0.1,0.0,-0.99,0.02,0.00,1.00000,0.00000,0.00000,0.00000,0.047,0.0060
2024,12,8,13:25:58.814,-0.912,56,-0.1,-0.2,0.0,-1.00,0.02,0.02,1.00000,0.00000,0.00000,0.00000,0.047,0.0010
2024,12,8,13:25:58.816,-0.910,58,-0.1,0.0,0.0,-1.00,0.02,0.00,1.00000,0.00000,0.00000,0.00000,0.047,0.0040
2024,12,8,13:25:58.818,-0.908,60,-0.1,0.1,0.0,-0.99,0.02,0.00,1.00000,0.00000,0.00000,0.00000,0.047,0.0030
2024,12,8,13:25:58.820,-0.906,62,-0.1,0.0,0.0,-0.99,0.02,0.01,1.00000,0.00000,0.00000,0.00000,0.047,0.0060
2024,12,8,13:25:58.822,-0.904,64,-0.1,0.0,0.0,-1.00,0.01,0.00,1.00000,0.00000,0.00000,0.00000,0.047,0.0030
2024,12,8,13:25:58.824,-0.902,66,-0.1,-0.1,0.0,-1.00,0.02,0.01,1.00000,0.00000,0.00000,0.00000,0.047,0.0060
2024,12,8,13:25:58.826,-0.900,68,-0.1,0.0,0.0,-1.00,0.02,0.00,1.00000,0.00000,0.00000,0.00000,0.047,0.0060
2024,12,8,13:25:58.828,-0.898,70,0.0,0.0,0.0,-0.99,0.03,0.02,1.00000,0.00000,0.00000,0.00000,0.047,0.0090
2024,12,8,13:25:58.830,-0.896,72,0.0,0.1,0.0,-1.00,0.02,0.00,1.00000,0.00000,0.00000,0.00000,0.047,0.0040
2024,12,8,13:25:58.832,-0.894,74,-0.1,0.0,0.0,-1.00,0.03,0.02,1.00000,0.00000,0.00000,0.00000,0.047,0.0140
2024,12,8,13:25:58.834,-0.892,76,0.0,0.2,0.0,-0.99,0.03,0.00,1.00000,0.00000,0.00000,0.00000,0.047,0.0070
2024,12,8,13:25:58.836,-0.890,78,-0.1,-0.1,0.0,-1.00,0.03,0.01,1.00000,0.00000,0.00000,0.00000,0.047,0.0060
2024,12,8,13:25:58.838,-0.888,80,0.0,0.0,0.0,-0.99,0.03,0.00,1.00000,0.00000,0.00000,0.00000,0.047,0.0030
2024,12,8,13:25:58.840,-0.886,82,0.0,-0.1,0.0,-0.99,0.02,0.00,1.00000,0.00000,0.00000,0.00000,0.047,0.0070
2024,12,8,13:25:58.842,-0.884,84,0.0,0.0,0.0,-1.00,0.02,0.01,1.00000,0.00000,0.00000,0.00000,0.047,0.0070
2024,12,8,13:25:58.844,-0.882,86,0.0,0.0,0.0,-0.99,0.04,0.01,1.00000,0.00000,0.00000,0.00000,0.047,0.0070
2024,12,8,13:25:58.846,-0.880,88,0.0,0.0,0.0,-1.00,0.02,0.00,1.00000,0.00000,0.00000,0.00000,0.047,0.0110
2024,12,8,13:25:58.848,-0.878,90,0.0,-0.1,0.0,-0.99,0.03,0.01,1.00000,0.00000,0.00000,0.00000,0.047,0.0120
2024,12,8,13:25:58.850,-0.876,92,0.0,0.2,0.0,-1.00,0.02,0.00,1.00000,0.00000,0.00000,0.00000,0.046,0.0060
2024,12,8,13:25:58.852,-0.874,94,-0.1,0.0,0.0,-0.99,0.02,0.02,1.00000,0.00000,0.00000,0.00000,0.047,0.0140
2024,12,8,13:25:58.854,-0.872,96,0.2,0.2,0.0,-0.99,0.02,0.00,1.00000,0.00000,0.00000,0.00000,0.047,0.0120
2024,12,8,13:25:58.856,-0.870,98,0.0,-0.1,-0.1,-0.99,0.03,0.02,1.00000,0.00000,0.00000,0.00000,0.047,0.0060
2024,12,8,13:25:58.858,-0.868,100,0.2,0.0,0.0,-0.99,0.02,0.00,1.00000,0.00000,0.00000,0.00000,0.047,0.0110
2024,12,8,13:25:58.860,-0.866,102,0.0,-0.2,-0.1,-0.99,0.02,0.01,1.00000,0.00000,0.00000,0.00000,0.047,0.0150
2024,12,8,13:25:58.862,-0.864,104,0.1,0.0,0.0,-0.99,0.03,0.00,1.00000,0.00000,0.00000,0.00000,0.047,0.0030
2024,12,8,13:25:58.864,-0.862,106,0.0,-0.2,0.0,-0.99,0.02,0.00,1.00000,0.00000,0.00000,0.00000,0.047,0.0060
2024,12,8,13:25:58.866,-0.860,108,0.2,0.1,0.0,-1.00,0.02,0.00,1.00000,0.00000,0.00000,0.00000,0.047,0.0060
2024,12,8,13:25:58.868,-0.858,110,0.0,-0.1,0.0,-1.00,0.02,0.00,1.00000,0.00000,0.00000,0.00000,0.047,0.0110
2024,12,8,13:25:58.870,-0.856,112,0.2,0.2,0.0,-1.00,0.03,0.01,1.00000,0.00000,0.00000,0.00000,0.047,0.0120
2024,12,8,13:25:58.872,-0.854,114,0.2,0.0,0.0,-0.98,0.02,0.00,1.00000,0.00000,0.00000,0.00000,0.047,0.0040
2024,12,8,13:25:58.874,-0.852,116,0.0,0.1,-0.1,-1.00,0.03,0.01,1.00000,0.00000,0.00000,0.00000,0.047,0.0060
2024,12,8,13:25:58.876,-0.850,118,0.0,-0.2,0.0,-1.00,0.02,0.01,1.00000,0.00000,0.00000,0.00000,0.047,0.0040
2024,12,8,13:25:58.878,-0.848,120,0.0,0.0,-0.1,-0.99,0.02,0.01,1.00000,0.00000,0.00000,0.00000,0.047,0.0070
2024,12,8,13:25:58.880,-0.846,122,0.0,0.0,0.0,-0.99,0.02,0.00,1.00000,0.00000,0.00000,0.00000,0.047,0.0040
2024,12,8,13:25:58.882,-0.844,124,0.0,0.0,0.0,-0.98,0.02,0.01,1.00000,0.00000,0.00000,0.00000,0.047,0.0010
2024,12,8,13:25:58.884,-0.842,126,0.1,0.0,0.0,-1.00,0.02,0.00,1.00000,0.00000,0.00000,0.00000,0.047,0.0090
2024,12,8,13:25:58.886,-0.840,128,-0.1,-0.1,0.0,-1.00,0.02,0.01,1.00000,0.00000,0.00000,0.00000,0.047,0.0090
2024,12,8,13:25:58.888,-0.838,130,-0.1,0.2,-0.1,-0.99,0.03,0.00,1.00000,0.00000,0.00000,0.00000,0.047,0.0110
2024,12,8,13:25:58.890,-0.836,132,0.0,0.0,0.0,-0.99,0.03,0.02,1.00000,0.00000,0.00000,0.00000,0.047,0.0060
2024,12,8,13:25:58.892,-0.834,134,0.0,0.2,0.0,-0.98,0.02,0.00,1.00000,0.00000,0.00000,0.00000,0.047,0.0060
2024,12,8,13:25:58.894,-0.832,136,-0.1,0.0,0.1,-0.99,0.03,0.01,1.00000,0.00000,0.00000,0.00000,0.047,0.0090
2024,12,8,13:25:58.896,-0.830,138,0.0,0.0,0.0,-1.00,0.03,0.01,1.00000,0.00000,0.00000,0.00000,0.047,0.0010
2024,12,8,13:25:58.898,-0.828,140,-0.1,0.0,0.0,-1.00,0.03,0.00,1.00000,0.00000,0.00000,0.00000,0.047,0.0040
2024,12,8,13:25:58.900,-0.826,142,0.0,-0.1,0.0,-1.00,0.02,0.01,1.00000,0.00000,0.00000,0.00000,0.047,0.0110
2024,12,8,13:25:58.902,-0.824,144,0.0,-0.1,0.0,-1.00,0.02,0.00,1.00000,0.00000,0.00000,0.00000,0.047,0.0090
2024,12,8,13:25:58.904,-0.822,146,0.0,0.0,0.0,-1.00,0.02,0.01,1.00000,0.00000,0.00000,0.00000,0.047,0.0060
2024,12,8,13:25:58.906,-0.820,148,0.0,0.0,0.0,-0.99,0.01,0.00,1.00000,0.00000,0.00000,0.00000,0.047,0.0000
2024,12,8,13:25:58.908,-0.818,150,0.1,0.0,0.0,-1.00,0.02,0.01,1.00000,0.00000,0.00000,0.00000,0.047,0.0040
2024,12,8,13:25:58.910,-0.816,152,0.0,0.0,0.0,-1.00,0.02,0.00,1.00000,0.00000,0.00000,0.00000,0.047,0.0030
2024,12,8,13:25:58.912,-0.814,154,0.0,0.0,0.0,-0.99,0.03,0.01,1.00000,0.00000,0.00000,0.00000,0.047,0.0090
2024,12,8,13:25:58.914,-0.812,156,0.1,0.0,0.0,-0.99,0.03,0.02,1.00000,0.00000,0.00000,0.00000,0.047,0.0150
2024,12,8,13:25:58.916,-0.810,158,0.0,0.0,0.0,-0.99,0.02,0.00,1.00000,0.00000,0.00000,0.00000,0.047,0.0070
2024,12,8,13:25:58.918,-0.808,160,0.0,0.0,0.0,-0.99,0.02,0.01,1.00000,0.00000,0.00000,0.00000,0.047,0.0040
2024,12,8,13:25:58.920,-0.806,162,0.0,-0.1,0.1,-0.99,0.02,0.00,1.00000,0.00000,0.00000,0.00000,0.047,0.0090
2024,12,8,13:25:58.922,-0.804,164,0.0,0.0,-0.1,-0.99,0.03,0.00,1.00000,0.00000,0.00000,0.00000,0.047,0.0090
2024,12,8,13:25:58.924,-0.802,166,-0.1,-0.2,0.0,-1.00,0.03,0.00,1.00000,0.00000,0.00000,0.00000,0.047,0.0110
2024,12,8,13:25:58.926,-0.800,168,0.0,0.0,0.0,-1.00,0.02,0.00,1.00000,0.00000,0.00000,0.00000,0.047,0.0070
2024,12,8,13:25:58.928,-0.798,170,0.0,-0.1,0.1,-1.00,0.03,0.01,1.00000,0.00000,0.00000,0.00000,0.047,0.0110
2024,12,8,13:25:58.930,-0.796,172,0.0,0.0,0.0,-1.00,0.02,0.00,1.00000,0.00000,0.00000,0.00000,0.047,0.0070
2024,12,8,13:25:58.932,-0.794,174,0.0,-0.1,0.0,-1.00,0.02,0.01,1.00000,0.00000,0.00000,0.00000,0.047,0.0030
2024,12,8,13:25:58.934,-0.792,176,0.0,0.0,0.0,-0.99,0.02,0.00,1.00000,0.00000,0.00000,0.00000,0.047,0.0060
2024,12,8,13:25:58.936,-0.790,178,0.0,0.0,0.0,-0.98,0.02,0.01,1.00000,0.00000,0.00000,0.00000,0.047,0.0030
2024,12,8,13:25:58.938,-0.788,180,0.0,0.0,0.0,-1.00,0.03,0.00,1.00000,0.00000,0.00000,0.00000,0.047,0.0060
2024,12,8,13:25:58.940,-0.786,182,0.1,0.0,0.0,-0.99,0.02,0.01,1.00000,0.00000,0.00000,0.00000,0.047,0.0010
2024,12,8,13:25:58.942,-0.784,184,0.0,0.0,-0.1,-0.99,0.01,0.01,1.00000,0.00000,0.00000,0.00000,0.047,0.0010
2024,12,8,13:25:58.944,-0.782,186,0.0,-0.1,0.1,-1.00,0.01,0.00,1.00000,0.00000,0.00000,0.00000,0.047,0.0000
2024,12,8,13:25:58.946,-0.780,188,0.0,0.2,0.0,-1.00,0.02,0.00,1.00000,0.00000,0.00000,0.00000,0.048,0.0010
2024,12,8,13:25:58.948,-0.778,190,0.0,-0.2,0.0,-0.99,0.01,0.01,1.00000,0.00000,0.00000,0.00000,0.046,0.0000
2024,12,8,13:25:58.950,-0.776,192,0.0,0.0,-0.1,-0.99,0.03,0.01,1.00000,0.00000,0.00000,0.00000,0.047,0.0040
2024,12,8,13:25:58.952,-0.774,194,0.0,-0.2,0.2,-1.00,0.02,0.01,1.00000,0.00000,0.00000,0.00000,0.047,0.0030
2024,12,8,13:25:58.954,-0.772,196,0.0,0.0,0.0,-1.00,0.03,0.01,1.00000,0.00000,0.00000,0.00000,0.047,0.0030
2024,12,8,13:25:58.956,-0.770,198,0.0,0.0,0.0,-1.00,0.02,0.01,1.00000,0.00000,0.00000,0.00000,0.047,0.0040
2024,12,8,13:25:58.958,-0.768,200,0.0,-0.1,0.0,-1.00,0.03,0.02,1.00000,0.00000,0.00000,0.00000,0.047,0.0040
2024,12,8,13:25:58.960,-0.766,202,0.0,0.0,0.3,-1.00,0.03,0.00,1.00000,0.00000,0.00000,0.00000,0.047,0.0000
2024,12,8,13:25:58.962,-0.764,204,0.0,0.0,0.0,-0.99,0.02,0.00,1.00000,0.00000,0.00000,0.00000,0.047,0.0090
2024,12,8,13:25:58.964,-0.762,206,0.0,0.0,0.0,-0.99,0.03,0.01,1.00000,0.00000,0.00000,0.00000,0.047,0.0110
2024,12,8,13:25:58.966,-0.760,208,0.0,0.0,0.1,-0.99,0.03,0.01,1.00000,0.00000,0.00000,0.00000,0.047,0.0070
2024,12,8,13:25:58.968,-0.758,210,0.0,0.0,0.1,-0.99,0.03,0.01,1.00000,0.00000,0.00000,0.00000,0.047,0.0120
2024,12,8,13:25:58.970,-0.756,212,0.0,0.0,0.0,-1.00,0.02,0.00,1.00000,0.00000,0.00000,0.00000,0.047,0.0090
2024,12,8,13:25:58.972,-0.754,214,-0.1,0.0,-0.1,-0.99,0.02,0.01,1.00000,0.00000,0.00000,0.00000,0.047,0.0140
2024,12,8,13:25:58.974,-0.752,216,0.0,0.0,0.0,-0.99,0.02,0.01,1.00000,0.00000,0.00000,0.00000,0.047,0.0070
2024,12,8,13:25:58.976,-0.750,218,0.0,-0.2,0.1,-0.99,0.01,0.01,1.00000,0.00000,0.00000,0.00000,0.047,0.0040
2024,12,8,13:25:58.978,-0.748,220,0.0,0.0,0.0,-0.99,0.02,0.01,1.00000,0.00000,0.00000,0.00003,0.046,0.0060
2024,12,8,13:25:58.980,-0.746,222,-0.1,-0.2,0.0,-1.00,0.02,0.02,1.00000,0.00000,0.00000,0.00003,0.047,0.0030
2024,12,8,13:25:58.982,-0.744,224,0.0,-0.1,0.0,-0.98,0.02,0.02,1.00000,0.00000,0.00000,0.00003,0.047,0.0110
2024,12,8,13:25:58.984,-0.742,226,0.0,-0.2,0.0,-1.00,0.02,0.00,1.00000,0.00000,-0.00003,0.00003,0.047,0.0110
2024,12,8,13:25:58.986,-0.740,228,-0.1,-0.1,0.0,-0.99,0.03,0.02,1.00000,0.00000,-0.00003,0.00003,0.047,0.0090
2024,12,8,13:25:58.988,-0.738,230,0.0,0.0,-0.1,-1.00,0.03,0.00,1.00000,0.00000,-0.00003,0.00003,0.047,0.0070
2024,12,8,13:25:58.990,-0.736,232,0.0,0.0,-0.1,-0.99,0.02,0.03,1.00000,0.00000,-0.00003,0.00000,0.047,0.0010
2024,12,8,13:25:58.992,-0.734,234,0.1,0.1,0.0,-0.99,0.02,0.00,1.00000,0.00000,-0.00003,0.00000,0.046,0.0030
2024,12,8,13:25:58.994,-0.732,236,0.0,0.0,0.0,-0.99,0.03,0.02,1.00000,0.00000,0.00000,0.00000,0.047,0.0010
2024,12,8,13:25:58.996,-0.730,238,0.0,0.0,0.0,-0.99,0.02,0.00,1.00000,0.00000,0.00000,0.00000,0.047,0.0070
2024,12,8,13:25:58.998,-0.728,240,-0.1,0.0,0.0,-0.99,0.03,0.02,1.00000,0.00000,0.00000,0.00000,0.047,0.0010
2024,12,8,13:25:59.000,-0.726,242,0.0,0.0,0.0,-1.00,0.03,0.01,1.00000,0.00000,0.00000,0.00000,0.047,0.0040
2024,12,8,13:25:59.002,-0.724,244,0.0,-0.1,0.0,-0.99,0.02,0.02,1.00000,0.00000,-0.00003,0.00000,0.047,0.0000
2024,12,8,13:25:59.004,-0.722,246,0.0,-0.1,0.0,-0.99,0.02,0.00,1.00000,0.00000,-0.00003,0.00000,0.047,0.0000
2024,12,8,13:25:59.006,-0.720,248,0.0,0.0,0.0,-1.00,0.02,0.02,1.00000,0.00000,-0.00003,0.00000,0.047,0.0040
2024,12,8,13:25:59.008,-0.718,0,0.0,0.0,0.0,-0.99,0.02,0.00,1.00000,0.00000,-0.00003,0.00003,0.047,0.0070
2024,12,8,13:25:59.010,-0.716,2,0.0,0.0,0.0,-0.99,0.01,0.01,1.00000,0.00000,-0.00003,0.00003,0.047,0.0060
2024,12,8,13:25:59.012,-0.714,4,0.0,0.0,0.0,-0.99,0.02,0.01,1.00000,0.00000,-0.00003,0.00003,0.047,0.0110
2024,12,8,13:25:59.014,-0.712,6,0.0,0.0,0.0,-1.00,0.03,0.00,1.00000,0.00000,-0.00003,0.00003,0.047,0.0090
2024,12,8,13:25:59.016,-0.710,8,0.0,0.1,0.0,-1.00,0.02,0.00,1.00000,0.00000,-0.00003,0.00003,0.047,0.0140
2024,12,8,13:25:59.018,-0.708,10,0.0,0.0,0.1,-1.00,0.02,0.00,1.00000,0.00000,-0.00003,0.00003,0.047,0.0090
2024,12,8,13:25:59.020,-0.706,12,0.0,0.0,0.0,-1.00,0.03,0.01,1.00000,0.00000,-0.00003,0.00003,0.047,0.0060
2024,12,8,13:25:59.022,-0.704,14,0.0,0.0,0.0,-0.99,0.02,0.01,1.00000,0.00000,-0.00003,0.00003,0.047,0.0120
2024,12,8,13:25:59.024,-0.702,16,-0.1,0.0,-0.1,-0.98,0.02,0.01,1.00000,0.00000,-0.00003,0.00003,0.047,0.0040
2024,12,8,13:25:59.026,-0.700,18,0.0,0.1,-0.1,-0.99,0.03,0.01,1.00000,0.00000,-0.00003,0.00003,0.047,0.0060
2024,12,8,13:25:59.028,-0.698,20,0.0,-0.1,0.1,-1.00,0.03,0.02,1.00000,0.00000,-0.00003,0.00003,0.047,0.0030
2024,12,8,13:25:59.030,-0.696,22,0.1,0.0,0.0,-0.99,0.03,0.01,1.00000,0.00000,-0.00003,0.00003,0.047,0.0090
2024,12,8,13:25:59.032,-0.694,24,0.0,0.0,0.0,-0.99,0.02,0.01,1.00000,0.00000,-0.00003,0.00003,0.047,0.0060
2024,12,8,13:25:59.034,-0.692,26,0.0,0.0,0.1,-0.99,0.03,0.02,1.00000,0.00000,-0.00003,0.00003,0.047,0.0070
2024,12,8,13:25:59.036,-0.690,28,0.1,0.0,-0.3,-1.00,0.02,0.01,1.00000,0.00000,-0.00003,0.00003,0.047,0.0040
2024,12,8,13:25:59.038,-0.688,30,-0.1,0.0,0.0,-1.00,0.03,0.02,1.00000,0.00000,-0.00003,0.00003,0.046,0.0030
2024,12,8,13:25:59.040,-0.686,32,0.0,0.0,0.0,-0.99,0.02,0.01,1.00000,0.00000,-0.00003,0.00003,0.047,0.0040
2024,12,8,13:25:59.042,-0.684,34,0.0,0.0,0.0,-0.99,0.02,0.01,1.00000,0.00000,-0.00003,0.00003,0.047,0.0120
2024,12,8,13:25:59.044,-0.682,36,0.0,0.0,0.0,-1.00,0.03,0.01,1.00000,0.00000,-0.00003,0.00003,0.047,0.0110
2024,12,8,13:25:59.046,-0.680,38,0.0,-0.1,0.0,-1.00,0.02,0.00,1.00000,0.00000,-0.00003,0.00003,0.047,0.0040
2024,12,8,13:25:59.048,-0.678,40,0.0,0.0,-0.1,-0.99,0.03,0.02,1.00000,0.00000,-0.00003,0.00003,0.047,0.0040
2024,12,8,13:25:59.050,-0.676,42,0.0,-0.2,0.1,-1.00,0.02,0.01,1.00000,0.00000,-0.00003,0.00003,0.047,0.0060
2024,12,8,13:25:59.052,-0.674,44,0.0,0.0,0.0,-0.99,0.03,0.00,1.00000,0.00000,-0.00003,0.00003,0.047,0.0110
2024,12,8,13:25:59.054,-0.672,46,0.0,0.1,0.1,-0.99,0.03,0.01,1.00000,0.00000,-0.00003,0.00003,0.048,0.0170
2024,12,8,13:25:59.056,-0.670,48,0.0,0.0,0.0,-1.00,0.03,0.02,1.00000,0.00000,-0.00003,0.00003,0.047,0.0070
2024,12,8,13:25:59.058,-0.668,50,0.0,0.1,0.0,-1.00,0.03,0.01,1.00000,0.00000,-0.00003,0.00003,0.047,0.0070
2024,12,8,13:25:59.060,-0.666,52,0.0,-0.2,0.0,-1.00,0.03,0.01,1.00000,0.00000,-0.00003,0.00003,0.047,0.0030
2024,12,8,13:25:59.062,-0.664,54,0.0,0.0,0.0,-0.99,0.02,0.01,1.00000,0.00000,-0.00003,0.00003,0.047,0.0000
2024,12,8,13:25:59.064,-0.662,56,0.0,0.0,0.0,-0.99,0.03,0.02,1.00000,0.00000,-0.00003,0.00003,0.047,0.0070
2024,12,8,13:25:59.066,-0.660,58,-0.1,-0.1,0.0,-0.99,0.03,0.01,1.00000,0.00000,-0.00003,0.00003,0.047,0.0010
2024,12,8,13:25:59.068,-0.658,60,0.0,0.1,-0.1,-0.99,0.02,0.02,1.00000,0.00000,-0.00003,0.00003,0.047,0.0000
2024,12,8,13:25:59.070,-0.656,62,-0.1,-0.1,0.0,-0.99,0.03,0.02,1.00000,0.00000,-0.00003,0.00003,0.047,0.0010
2024,12,8,13:25:59.072,-0.654,64,0.0,0.0,0.1,-0.99,0.02,0.02,1.00000,0.00000,-0.00003,0.00003,0.047,0.0030
2024,12,8,13:25:59.074,-0.652,66,-0.1,-0.2,0.0,-0.99,0.02,0.02,1.00000,0.00000,-0.00003,0.00003,0.047,0.0000
2024,12,8,13:25:59.076,-0.650,68,-0.1,0.0,0.0,-1.00,0.03,0.01,1.00000,0.00000,-0.00003,0.00003,0.047,0.0000
2024,12,8,13:25:59.078,-0.648,70,-0.1,0.0,0.0,-1.00,0.02,0.01,1.00000,0.00000,-0.00003,0.00003,0.047,0.0060
2024,12,8,13:25:59.080,-0.646,72,0.0,0.1,0.1,-1.00,0.03,0.02,1.00000,0.00000,-0.00003,0.00003,0.047,0.0040
2024,12,8,13:25:59.082,-0.644,74,0.0,0.2,0.0,-0.99,0.02,0.00,1.00000,0.00000,-0.00003,0.00003,0.047,0.0140
2024,12,8,13:25:59.084,-0.642,76,0.0,0.0,0.0,-0.99,0.03,0.03,1.00000,0.00000,-0.00003,0.00003,0.047,0.0070
2024,12,8,13:25:59.086,-0.640,78,0.0,0.2,0.0,-1.00,0.02,0.00,1.00000,0.00000,-0.00003,0.00003,0.047,0.0040
2024,12,8,13:25:59.088,-0.638,80,0.0,0.0,0.0,-0.98,0.03,0.03,1.00000,0.00000,-0.00003,0.00003,0.047,0.0000
2024,12,8,13:25:59.090,-0.636,82,0.0,0.1,0.1,-1.00,0.04,0.00,1.00000,0.00000,-0.00003,0.00003,0.047,0.0150
2024,12,8,13:25:59.092,-0.634,84,0.0,0.0,0.0,-0.99,0.03,0.02,1.00000,0.00000,-0.00003,0.00003,0.047,0.0170
2024,12,8,13:25:59.094,-0.632,86,0.1,0.1,0.0,-0.99,0.02,0.00,1.00000,0.00000,-0.00003,0.00003,0.047,0.0090
2024,12,8,13:25:59.096,-0.630,88,0.0,0.0,0.0,-1.00,0.02,0.00,1.00000,0.00000,-0.00003,0.00003,0.047,0.0060
2024,12,8,13:25:59.098,-0.628,90,0.0,0.2,0.0,-0.99,0.02,0.01,1.00000,0.00000,0.00000,0.00003,0.047,0.0090
2024,12,8,13:25:59.100,-0.626,92,0.0,0.0,0.0,-0.99,0.03,0.00,1.00000,0.00000,0.00000,0.00003,0.047,0.0030
2024,12,8,13:25:59.102,-0.624,94,0.1,0.0,-0.1,-0.99,0.04,0.01,1.00000,0.00000,0.00000,0.00003,0.047,0.0060
2024,12,8,13:25:59.104,-0.622,96,0.0,0.0,0.0,-1.00,0.02,0.01,1.00000,0.00000,0.00000,0.00003,0.047,0.0070
2024,12,8,13:25:59.106,-0.620,98,0.0,-0.1,0.0,-1.00,0.02,0.02,1.00000,0.00000,-0.00003,0.00003,0.047,0.0090
2024,12,8,13:25:59.108,-0.618,100,0.0,0.0,0.0,-0.99,0.02,0.00,1.00000,0.00000,0.00000,0.00003,0.047,0.0120
2024,12,8,13:25:59.110,-0.616,102,0.0,-0.2,0.0,-1.00,0.01,0.02,1.00000,0.00000,-0.00003,0.00003,0.047,0.0140
2024,12,8,13:25:59.112,-0.614,104,0.0,0.1,0.1,-0.99,0.02,0.00,1.00000,0.00000,-0.00003,0.00003,0.047,0.0150
2024,12,8,13:25:59.114,-0.612,106,0.0,0.0,0.0,-0.99,0.02,0.02,1.00000,0.00000,-0.00003,0.00003,0.047,0.0030
2024,12,8,13:25:59.116,-0.610,108,0.1,0.0,0.1,-1.00,0.02,0.01,1.00000,0.00000,-0.00003,0.00003,0.047,0.0150
2024,12,8,13:25:59.118,-0.608,110,0.1,-0.1,-0.1,-1.00,0.03,0.02,1.00000,0.00000,-0.00003,0.00003,0.047,0.0030
2024,12,8,13:25:59.120,-0.606,112,0.0,0.2,0.0,-0.98,0.03,0.01,1.00000,0.00000,-0.00003,0.00003,0.047,0.0060
2024,12,8,13:25:59.122,-0.604,114,0.0,-0.2,0.0,-0.99,0.02,0.02,1.00000,0.00000,-0.00003,0.00003,0.047,0.0150
2024,12,8,13:25:59.124,-0.602,116,0.0,0.2,0.0,-0.99,0.02,0.00,1.00000,0.00000,-0.00003,0.00003,0.047,0.0060
2024,12,8,13:25:59.126,-0.600,118,-0.1,0.0,0.0,-0.98,0.03,0.01,1.00000,0.00000,-0.00003,0.00003,0.047,0.0110
2024,12,8,13:25:59.128,-0.598,120,0.0,0.0,0.0,-0.99,0.02,0.01,1.00000,0.00000,-0.00003,0.00003,0.047,0.0090
2024,12,8,13:25:59.130,-0.596,122,0.0,0.0,-0.1,-1.00,0.02,0.00,1.00000,0.00000,-0.00003,0.00003,0.047,0.0010
2024,12,8,13:25:59.132,-0.594,124,0.0,0.0,-0.1,-0.99,0.03,0.01,1.00000,0.00000,-0.00003,0.00003,0.047,0.0070
2024,12,8,13:25:59.134,-0.592,126,0.0,0.0,-0.1,-0.99,0.02,0.01,1.00000,0.00000,-0.00003,0.00003,0.047,0.0030
2024,12,8,13:25:59.136,-0.590,128,-0.1,-0.1,0.0,-0.99,0.03,0.02,1.00000,0.00000,-0.00003,0.00003,0.047,0.0060
2024,12,8,13:25:59.138,-0.588,130,0.0,0.0,-0.1,-1.00,0.03,0.01,1.00000,0.00000,-0.00003,0.00003,0.047,0.0120
2024,12,8,13:25:59.140,-0.586,132,0.0,0.0,0.0,-1.01,0.02,0.02,1.00000,0.00000,-0.00003,0.00003,0.047,0.0170
2024,12,8,13:25:59.142,-0.584,134,0.0,0.1,0.0,-0.99,0.02,0.01,1.00000,0.00000,-0.00003,0.00003,0.047,0.0110
2024,12,8,13:25:59.144,-0.582,136,0.0,-0.1,0.0,-1.00,0.02,0.02,1.00000,0.00000,-0.00003,0.00003,0.047,0.0120
2024,12,8,13:25:59.146,-0.580,138,0.0,0.0,0.0,-0.99,0.02,0.00,1.00000,0.00000,-0.00003,0.00003,0.047,0.0170
2024,12,8,13:25:59.148,-0.578,140,-0.1,0.0,0.0,-0.99,0.03,0.00,1.00000,0.00000,-0.00003,0.00003,0.047,0.0190
2024,12,8,13:25:59.150,-0.576,142,0.0,0.0,0.0,-0.99,0.03,0.02,1.00000,0.00000,-0.00003,0.00003,0.047,0.0140
2024,12,8,13:25:59.152,-0.574,144,0.1,-0.1,0.0,-1.00,0.02,0.02,1.00000,0.00000,-0.00003,0.00003,0.047,0.0190
2024,12,8,13:25:59.154,-0.572,146,-0.1,0.0,0.0,-1.00,0.03,0.00,1.00000,0.00000,-0.00003,0.00003,0.047,0.0120
2024,12,8,13:25:59.156,-0.570,148,0.1,0.3,0.0,-0.99,0.02,0.00,1.00000,0.00000,-0.00003,0.00003,0.047,0.0140
2024,12,8,13:25:59.158,-0.568,150,0.0,-0.1,0.0,-1.00,0.01,0.00,1.00000,0.00000,-0.00003,0.00003,0.047,0.0060
2024,12,8,13:25:59.160,-0.566,152,0.1,0.1,0.0,-1.00,0.02,0.01,1.00000,0.00000,-0.00003,0.00003,0.047,0.0120
2024,12,8,13:25:59.162,-0.564,154,-0.1,0.2,0.0,-0.99,0.02,0.00,1.00000,0.00000,0.00000,0.00003,0.047,0.0170
2024,12,8,13:25:59.164,-0.562,156,0.0,0.0,-0.1,-0.99,0.02,0.03,1.00000,0.00000,0.00000,0.00003,0.047,0.0140
2024,12,8,13:25:59.166,-0.560,158,0.0,0.2,0.0,-1.00,0.03,-0.01,1.00000,0.00000,0.00000,0.00003,0.047,0.0150
2024,12,8,13:25:59.168,-0.558,160,-0.1,0.1,0.0,-0.99,0.03,0.01,1.00000,0.00000,0.00000,0.00003,0.047,0.0140
2024,12,8,13:25:59.170,-0.556,162,0.0,0.0,0.0,-0.98,0.02,0.01,1.00000,0.00000,0.00000,0.00003,0.047,0.0140
2024,12,8,13:25:59.172,-0.554,164,-0.3,0.0,0.0,-0.99,0.04,0.00,1.00000,0.00000,0.00000,0.00003,0.047,0.0150
2024,12,8,13:25:59.174,-0.552,166,0.0,0.2,0.0,-0.98,0.03,0.00,1.00000,0.00000,0.00000,0.00003,0.047,0.0140
2024,12,8,13:25:59.176,-0.550,168,0.0,-0.2,0.0,-1.00,0.04,0.01,1.00000,0.00000,0.00000,0.00003,0.047,0.0090
2024,12,8,13:25:59.178,-0.548,170,0.0,0.2,-0.1,-1.00,0.03,0.00,1.00000,0.00000,0.00000,0.00003,0.047,0.0110
2024,12,8,13:25:59.180,-0.546,172,0.0,0.0,0.0,-0.99,0.02,0.00,1.00000,0.00000,0.00000,0.00003,0.047,0.0070
2024,12,8,13:25:59.182,-0.544,174,0.0,0.1,0.0,-0.99,0.04,0.00,1.00000,0.00000,0.00000,0.00003,0.047,0.0120
2024,12,8,13:25:59.184,-0.542,176,0.0,0.1,0.0,-1.00,0.02,0.01,1.00000,0.00000,0.00000,0.00003,0.047,0.0090
2024,12,8,13:25:59.186,-0.540,178,0.1,0.0,0.0,-0.99,0.03,0.00,1.00000,0.00000,0.00000,0.00003,0.047,0.0120
2024,12,8,13:25:59.188,-0.538,180,0.0,0.0,-0.1,-1.00,0.02,0.02,1.00000,0.00000,0.00000,0.00003,0.048,0.0150
2024,12,8,13:25:59.190,-0.536,182,0.0,0.0,-0.1,-0.99,0.02,0.00,1.00000,0.00000,0.00000,0.00003,0.047,0.0110
2024,12,8,13:25:59.192,-0.534,184,-0.1,0.0,0.0,-1.00,0.02,0.01,1.00000,0.00000,0.00000,0.00003,0.047,0.0090
2024,12,8,13:25:59.194,-0.532,186,-0.1,0.2,-0.1,-1.01,0.02,0.00,1.00000,0.00000,0.00000,0.00003,0.047,0.0140
2024,12,8,13:25:59.196,-0.530,188,0.0,-0.2,0.0,-0.99,0.01,0.02,1.00000,0.00000,0.00000,0.00003,0.047,0.0090
2024,12,8,13:25:59.198,-0.528,190,0.0,0.0,-0.1,-1.00,0.01,0.01,1.00000,0.00000,0.00000,0.00003,0.047,0.0120
2024,12,8,13:25:59.200,-0.526,192,-0.3,0.0,0.0,-1.01,0.03,0.00,1.00000,0.00000,0.00000,0.00003,0.047,0.0110
2024,12,8,13:25:59.202,-0.524,194,-0.1,0.1,-0.1,-1.00,0.03,0.01,1.00000,0.00000,0.00000,0.00003,0.047,0.0170
2024,12,8,13:25:59.204,-0.522,196,0.0,0.0,-0.1,-1.00,0.03,0.00,1.00000,0.00000,0.00000,0.00003,0.047,0.0120
2024,12,8,13:25:59.206,-0.520,198,-0.1,0.1,-0.1,-1.00,0.03,0.00,1.00000,0.00000,0.00000,0.00003,0.047,0.0040
2024,12,8,13:25:59.208,-0.518,200,0.0,0.2,0.0,-1.01,0.03,0.00,1.00000,0.00000,0.00000,0.00003,0.047,0.0030
2024,12,8,13:25:59.210,-0.516,202,0.0,0.0,0.0,-0.98,0.03,0.01,1.00000,0.00000,0.00000,0.00003,0.047,0.0110
2024,12,8,13:25:59.212,-0.514,204,0.2,0.0,0.0,-0.98,0.03,0.02,1.00000,0.00000,0.00000,0.00003,0.047,0.0090
2024,12,8,13:25:59.214,-0.512,206,-0.1,0.2,0.0,-1.00,0.04,0.00,1.00000,0.00000,0.00000,0.00003,0.047,0.0040
2024,12,8,13:25:59.216,-0.510,208,-0.1,0.3,0.0,-1.01,0.02,0.00,1.00000,0.00000,0.00000,0.00003,0.047,0.0060
2024,12,8,13:25:59.218,-0.508,210,0.2,-0.4,0.0,-1.00,0.03,0.02,1.00000,0.00000,0.00000,0.00003,0.047,0.0110
2024,12,8,13:25:59.220,-0.506,212,0.1,0.0,0.0,-0.99,0.02,-0.01,1.00000,0.00000,0.00000,0.00003,0.047,0.0090
2024,12,8,13:25:59.222,-0.504,214,0.2,0.3,0.0,-0.99,0.02,0.01,1.00000,0.00000,0.00000,0.00003,0.047,0.0120
2024,12,8,13:25:59.224,-0.502,216,0.0,0.1,-0.1,-1.01,0.02,0.00,1.00000,0.00000,0.00000,0.00003,0.047,0.0170
2024,12,8,13:25:59.226,-0.500,218,0.0,0.3,-0.1,-1.00,0.02,0.00,1.00000,0.00000,0.00000,0.00000,0.047,0.0070
2024,12,8,13:25:59.228,-0.498,220,0.0,0.0,0.0,-1.00,0.02,0.00,1.00000,0.00000,0.00000,0.00000,0.047,0.0110
2024,12,8,13:25:59.230,-0.496,222,0.0,0.1,-0.1,-1.00,0.01,0.00,1.00000,0.00000,0.00000,0.00000,0.047,0.0040
2024,12,8,13:25:59.232,-0.494,224,0.0,0.0,0.0,-0.99,0.02,0.01,1.00000,0.00000,0.00000,0.00000,0.047,0.0120
2024,12,8,13:25:59.234,-0.492,226,0.0,0.0,0.0,-0.99,0.03,0.00,1.00000,0.00000,0.00000,0.00000,0.047,0.0060
2024,12,8,13:25:59.236,-0.490,228,0.1,0.2,-0.1,-0.99,0.02,0.00,1.00000,0.00000,0.00000,0.00000,0.047,0.0150
2024,12,8,13:25:59.238,-0.488,230,-0.2,-0.3,0.0,-0.99,0.03,0.00,1.00000,0.00000,0.00000,0.00000,0.047,0.0120
2024,12,8,13:25:59.240,-0.486,232,0.1,0.4,-0.2,-1.01,0.02,-0.01,1.00000,0.00000,0.00000,0.00000,0.047,0.0220
2024,12,8,13:25:59.242,-0.484,234,0.0,-0.2,0.0,-0.98,0.01,0.03,1.00000,0.00000,0.00000,0.00000,0.047,0.0140
2024,12,8,13:25:59.244,-0.482,236,0.0,0.0,0.0,-1.00,0.01,0.00,1.00000,0.00000,0.00000,0.00000,0.047,0.0120
2024,12,8,13:25:59.246,-0.480,238,0.1,0.0,0.0,-0.99,0.02,0.01,1.00000,0.00000,0.00000,0.00000,0.047,0.0150
2024,12,8,13:25:59.248,-0.478,240,0.0,0.3,-0.1,-0.99,0.01,0.00,1.00000,0.00000,0.00000,0.00000,0.047,0.0090
2024,12,8,13:25:59.250,-0.476,242,0.0,0.0,0.1,-0.99,0.02,0.02,1.00000,0.00000,0.00000,0.00000,0.047,0.0090
2024,12,8,13:25:59.252,-0.474,244,0.0,0.1,-0.1,-0.99,0.03,0.00,1.00000,0.00000,0.00000,0.00000,0.046,0.0070
2024,12,8,13:25:59.254,-0.472,246,0.0,0.0,0.0,-0.99,0.02,0.03,1.00000,0.00000,0.00000,0.00000,0.047,0.0120
2024,12,8,13:25:59.256,-0.470,248,-0.2,0.2,-0.1,-0.98,0.04,0.01,1.00000,0.00000,0.00000,0.00000,0.047,0.0070
2024,12,8,13:25:59.258,-0.468,0,-0.2,0.1,0.0,-1.01,0.03,-0.03,1.00000,0.00000,0.00000,0.00000,0.047,0.0110
2024,12,8,13:25:59.260,-0.466,2,0.0,0.3,0.0,-0.98,0.03,0.00,1.00000,0.00000,0.00003,0.00000,0.047,0.0070
2024,12,8,13:25:59.262,-0.464,4,0.0,0.0,-0.1,-1.00,0.00,0.00,1.00000,0.00000,0.00003,0.00000,0.047,0.0120
2024,12,8,13:25:59.264,-0.462,6,0.0,0.0,0.0,-0.99,0.03,0.01,1.00000,0.00000,0.00003,0.00000,0.047,0.0150
2024,12,8,13:25:59.266,-0.460,8,0.0,0.0,0.0,-1.00,0.02,0.02,1.00000,0.00000,0.00003,0.00000,0.047,0.0090
2024,12,8,13:25:59.268,-0.458,10,-0.1,-0.2,0.0,-0.99,0.02,0.01,1.00000,0.00000,0.00000,0.00000,0.047,0.0110
2024,12,8,13:25:59.270,-0.456,12,0.0,0.0,0.0,-0.99,0.02,0.00,1.00000,0.00000,0.00000,0.00000,0.047,0.0120
2024,12,8,13:25:59.272,-0.454,14,-0.1,-0.2,0.0,-0.99,0.02,0.01,1.00000,0.00000,0.00000,0.00000,0.047,0.0120
2024,12,8,13:25:59.274,-0.452,16,0.2,0.3,0.0,-1.00,0.02,-0.01,1.00000,0.00000,0.00003,0.00000,0.047,0.0070
2024,12,8,13:25:59.276,-0.450,18,0.0,-0.3,0.0,-0.99,0.02,0.00,1.00000,0.00000,0.00000,0.00000,0.047,0.0090
2024,12,8,13:25:59.278,-0.448,20,0.3,0.2,0.0,-0.99,0.02,0.00,1.00000,0.00000,0.00003,0.00000,0.047,0.0070
2024,12,8,13:25:59.280,-0.446,22,0.0,0.0,0.0,-1.01,0.02,0.00,1.00000,0.00000,0.00000,0.00000,0.047,0.0070
2024,12,8,13:25:59.282,-0.444,24,0.0,0.1,0.0,-1.00,0.03,0.00,1.00000,0.00000,0.00003,0.00000,0.047,0.0140
2024,12,8,13:25:59.284,-0.442,26,0.0,0.0,0.0,-1.00,0.02,-0.01,1.00000,0.00000,0.00003,0.00000,0.047,0.0030
2024,12,8,13:25:59.286,-0.440,28,0.0,-0.2,0.0,-0.98,0.02,0.04,1.00000,0.00000,0.00000,0.00000,0.047,0.0030
2024,12,8,13:25:59.288,-0.438,30,0.2,0.0,0.0,-0.99,0.01,0.00,1.00000,0.00000,0.00000,0.00000,0.047,0.0040
2024,12,8,13:25:59.290,-0.436,32,-0.1,-0.2,0.0,-1.01,0.03,0.02,1.00000,0.00000,0.00000,0.00000,0.047,0.0010
2024,12,8,13:25:59.292,-0.434,34,0.0,0.1,-0.1,-1.00,0.02,-0.01,1.00000,0.00000,0.00000,0.00000,0.046,0.0010
2024,12,8,13:25:59.294,-0.432,36,0.0,-0.3,-0.1,-1.00,0.02,0.02,1.00000,0.00000,0.00000,0.00000,0.047,0.0040
2024,12,8,13:25:59.296,-0.430,38,0.0,0.0,0.0,-0.99,0.02,0.00,1.00000,0.00000,0.00000,0.00000,0.047,0.0010
2024,12,8,13:25:59.298,-0.428,40,0.0,0.0,0.0,-1.01,0.02,0.00,1.00000,0.00000,0.00000,0.00000,0.047,0.0070
2024,12,8,13:25:59.300,-0.426,42,0.0,-0.2,0.0,-0.98,0.03,0.02,1.00000,0.00000,0.00000,0.00000,0.047,0.0010
2024,12,8,13:25:59.302,-0.424,44,-0.2,0.0,0.1,-1.01,0.02,0.00,1.00000,0.00000,0.00000,0.00000,0.047,0.0040
2024,12,8,13:25:59.304,-0.422,46,-0.1,-0.2,0.0,-0.97,0.03,0.05,1.00000,0.00000,0.00000,0.00000,0.047,0.0040
2024,12,8,13:25:59.306,-0.420,48,0.0,0.0,0.0,-0.98,0.02,0.00,1.00000,0.00000,0.00000,0.00000,0.047,0.0040
2024,12,8,13:25:59.308,-0.418,50,0.1,0.0,0.0,-1.00,0.03,0.03,1.00000,0.00000,0.00000,0.00000,0.047,0.0070
2024,12,8,13:25:59.310,-0.416,52,0.0,0.2,0.0,-0.99,0.02,0.00,1.00000,0.00000,0.00000,0.00000,0.047,0.0070
2024,12,8,13:25:59.312,-0.414,54,0.0,0.0,0.0,-0.99,0.02,0.01,1.00000,0.00000,0.00000,0.00000,0.047,0.0070
2024,12,8,13:25:59.314,-0.412,56,0.0,0.0,0.0,-1.00,0.04,0.00,1.00000,0.00000,0.00000,0.00000,0.047,0.0010
2024,12,8,13:25:59.316,-0.410,58,-0.1,0.0,0.0,-1.00,0.02,0.00,1.00000,0.00000,0.00000,0.00000,0.047,0.0030
2024,12,8,13:25:59.318,-0.408,60,0.0,-0.1,0.0,-0.99,0.03,0.03,1.00000,0.00000,0.00000,0.00000,0.047,0.0070
2024,12,8,13:25:59.320,-0.406,62,0.0,-0.3,0.0,-1.00,0.01,0.02,1.00000,0.00000,0.00000,0.00000,0.047,0.0030
2024,12,8,13:25:59.322,-0.404,64,0.2,0.2,0.0,-0.97,0.02,0.00,1.00000,0.00000,0.00000,0.00000,0.047,0.0040
2024,12,8,13:25:59.324,-0.402,66,-0.1,0.0,-0.1,-0.99,0.01,0.00,1.00000,0.00000,0.00000,0.00000,0.047,0.0040
2024,12,8,13:25:59.326,-0.400,68,0.0,0.3,-0.1,-0.98,0.02,0.02,1.00000,0.00000,0.00000,0.00000,0.047,0.0030
2024,12,8,13:25:59.328,-0.398,70,0.0,-0.1,0.0,-1.00,0.02,0.00,1.00000,0.00000,0.00000,0.00000,0.047,0.0040
2024,12,8,13:25:59.330,-0.396,72,0.1,0.0,0.0,-1.00,0.02,0.01,1.00000,0.00000,0.00000,0.00000,0.047,0.0040
2024,12,8,13:25:59.332,-0.394,74,0.0,0.0,0.0,-1.00,0.02,0.02,1.00000,0.00000,0.00000,0.00000,0.047,0.0010
2024,12,8,13:25:59.334,-0.392,76,0.0,0.0,0.1,-0.99,0.03,0.00,1.00000,0.00000,0.00000,0.00000,0.047,0.0000
2024,12,8,13:25:59.336,-0.390,78,0.1,0.2,-0.1,-0.99,0.01,0.01,1.00000,0.00000,0.00000,0.00000,0.047,0.0030
2024,12,8,13:25:59.338,-0.388,80,0.0,-0.1,-0.1,-0.99,0.04,0.00,1.00000,0.00000,0.00000,0.00000,0.047,0.0090
2024,12,8,13:25:59.340,-0.386,82,0.0,0.0,0.0,-1.00,0.01,0.01,1.00000,0.00000,0.00000,0.00000,0.047,0.0010
2024,12,8,13:25:59.342,-0.384,84,-0.1,-0.2,-0.1,-0.99,0.02,0.02,1.00000,0.00000,0.00000,0.00000,0.047,0.0070
2024,12,8,13:25:59.344,-0.382,86,0.0,0.6,-0.1,-1.01,0.04,-0.02,1.00000,0.00000,0.00000,0.00000,0.047,0.0040
2024,12,8,13:25:59.346,-0.380,88,-0.1,0.0,0.0,-0.99,0.04,0.01,1.00000,0.00000,0.00000,0.00000,0.047,0.0060
2024,12,8,13:25:59.348,-0.378,90,0.2,0.2,0.0,-0.99,0.01,0.02,1.00000,0.00000,0.00003,0.00000,0.047,0.0040
2024,12,8,13:25:59.350,-0.376,92,-0.1,0.0,0.0,-0.98,0.04,0.02,1.00000,0.00000,0.00003,0.00000,0.046,0.0070
2024,12,8,13:25:59.352,-0.374,94,0.1,0.2,0.0,-1.01,0.01,0.02,1.00000,0.00000,0.00003,0.00000,0.047,0.0110
2024,12,8,13:25:59.354,-0.372,96,0.0,-0.2,0.0,-1.00,0.03,0.04,1.00000,0.00000,0.00003,0.00000,0.047,0.0030
2024,12,8,13:25:59.356,-0.370,98,0.0,0.2,0.0,-1.01,0.01,0.02,1.00000,0.00000,0.00003,0.00000,0.047,0.0010
2024,12,8,13:25:59.358,-0.368,100,0.0,-0.2,0.0,-0.99,0.00,0.02,1.00000,0.00000,0.00003,0.00000,0.047,0.0030
2024,12,8,13:25:59.360,-0.366,102,0.0,0.0,0.1,-0.97,0.02,0.02,1.00000,0.00000,0.00003,0.00000,0.047,0.0040
2024,12,8,13:25:59.362,-0.364,104,0.0,-0.2,0.0,-1.01,0.01,0.00,1.00000,0.00000,0.00000,0.00000,0.047,0.0070
2024,12,8,13:25:59.364,-0.362,106,0.5,0.2,0.0,-1.00,0.03,0.00,1.00000,0.00000,0.00003,0.00000,0.047,0.0090
2024,12,8,13:25:59.366,-0.360,108,-0.1,-0.1,0.0,-1.00,0.02,0.00,1.00000,0.00000,0.00003,0.00000,0.047,0.0040
2024,12,8,13:25:59.368,-0.358,110,0.2,0.2,0.0,-1.00,0.01,0.00,1.00000,0.00000,0.00003,0.00000,0.047,0.0070
2024,12,8,13:25:59.370,-0.356,112,-0.1,-0.1,-0.1,-0.99,0.02,0.00,1.00000,0.00000,0.00003,0.00000,0.047,0.0040
2024,12,8,13:25:59.372,-0.354,114,0.1,0.4,0.0,-0.99,0.04,0.00,1.00000,0.00000,0.00003,0.00000,0.047,0.0040
2024,12,8,13:25:59.374,-0.352,116,0.1,-0.5,-0.1,-1.01,0.01,0.03,1.00000,0.00000,0.00000,0.00000,0.047,0.0070
2024,12,8,13:25:59.376,-0.350,118,0.2,0.4,0.0,-0.99,0.04,0.00,1.00000,0.00000,0.00003,0.00000,0.047,0.0010
2024,12,8,13:25:59.378,-0.348,120,-0.1,0.0,0.0,-0.98,0.00,0.02,1.00000,0.00000,0.00003,0.00000,0.047,0.0070
2024,12,8,13:25:59.380,-0.346,122,0.2,0.0,0.0,-1.01,0.02,-0.01,1.00000,0.00000,0.00003,0.00000,0.047,0.0010
2024,12,8,13:25:59.382,-0.344,124,0.0,0.0,0.0,-1.00,0.05,0.03,1.00000,0.00000,0.00003,0.00000,0.047,0.0060
2024,12,8,13:25:59.384,-0.342,126,-0.1,0.5,-0.1,-1.00,0.00,-0.02,1.00000,0.00000,0.00003,0.00000,0.047,0.0040
2024,12,8,13:25:59.386,-0.340,128,-0.1,-0.7,0.0,-1.00,0.03,0.02,1.00000,0.00000,0.00003,0.00000,0.047,0.0010
2024,12,8,13:25:59.388,-0.338,130,0.2,0.4,0.0,-1.01,0.02,-0.02,1.00000,0.00000,0.00003,0.00000,0.047,0.0030
2024,12,8,13:25:59.390,-0.336,132,-0.2,-0.2,0.0,-1.00,0.00,0.00,1.00000,0.00000,0.00003,0.00000,0.047,0.0040
2024,12,8,13:25:59.392,-0.334,134,0.1,0.5,0.0,-0.98,0.02,0.00,1.00000,0.00000,0.00003,0.00000,0.047,0.0070
2024,12,8,13:25:59.394,-0.332,136,0.0,0.0,0.0,-1.00,0.01,-0.02,1.00000,0.00000,0.00003,0.00000,0.047,0.0120
2024,12,8,13:25:59.396,-0.330,138,0.0,0.4,0.1,-0.99,0.03,0.00,1.00000,0.00000,0.00000,0.00000,0.047,0.0090
2024,12,8,13:25:59.398,-0.328,140,-0.3,-0.2,0.1,-1.01,0.05,0.01,1.00000,0.00000,0.00000,0.00000,0.047,0.0070
2024,12,8,13:25:59.400,-0.326,142,0.0,-0.1,0.0,-0.99,0.02,0.05,1.00000,0.00000,0.00000,0.00000,0.047,0.0220
2024,12,8,13:25:59.402,-0.324,144,-0.1,-0.2,0.0,-0.99,0.03,-0.02,1.00000,0.00000,0.00000,0.00000,0.047,0.0110
2024,12,8,13:25:59.404,-0.322,146,-0.4,-0.6,0.0,-0.98,0.03,0.06,1.00000,0.00000,0.00000,0.00000,0.047,0.0150
2024,12,8,13:25:59.406,-0.320,148,0.2,0.2,0.0,-1.01,0.00,-0.05,1.00000,0.00000,0.00000,0.00000,0.047,0.0120
2024,12,8,13:25:59.408,-0.318,150,-0.4,-0.8,0.0,-0.98,0.05,0.05,1.00000,0.00000,0.00000,0.00000,0.047,0.0170
2024,12,8,13:25:59.410,-0.316,152,0.5,0.4,0.0,-1.00,0.00,-0.03,1.00000,0.00000,0.00000,0.00000,0.047,0.0090
2024,12,8,13:25:59.412,-0.314,154,0.0,-0.5,0.0,-0.96,0.04,0.07,1.00000,0.00000,0.00000,0.00000,0.047,0.0070
2024,12,8,13:25:59.414,-0.312,156,-0.1,0.7,-0.1,-1.04,0.05,0.00,1.00000,0.00000,0.00000,0.00000,0.047,0.0120
2024,12,8,13:25:59.416,-0.310,158,-0.4,-0.2,0.0,-1.02,0.04,0.00,1.00000,0.00000,0.00000,0.00000,0.047,0.0110
2024,12,8,13:25:59.418,-0.308,160,0.4,-0.2,0.0,-0.98,0.00,0.08,1.00000,0.00000,0.00000,0.00000,0.047,0.0140
2024,12,8,13:25:59.420,-0.306,162,0.1,-1.1,0.0,-0.97,0.03,0.04,1.00000,0.00000,-0.00003,0.00000,0.047,0.0150
2024,12,8,13:25:59.422,-0.304,164,0.8,0.4,0.0,-0.97,-0.03,-0.02,1.00000,0.00000,-0.00003,0.00000,0.047,0.0040
2024,12,8,13:25:59.424,-0.302,166,-0.7,-0.4,0.1,-1.01,0.05,-0.02,1.00000,0.00000,-0.00003,0.00000,0.047,0.0060
2024,12,8,13:25:59.426,-0.300,168,0.2,1.2,0.0,-1.02,0.02,-0.03,1.00000,0.00000,0.00000,0.00000,0.047,0.0110
2024,12,8,13:25:59.428,-0.298,170,0.2,-0.7,0.0,-0.98,0.00,-0.01,1.00000,0.00000,-0.00003,0.00000,0.047,0.0070
2024,12,8,13:25:59.430,-0.296,172,0.5,0.4,0.0,-1.00,0.04,-0.01,1.00000,0.00000,0.00000,0.00000,0.047,0.0120
2024,12,8,13:25:59.432,-0.294,174,-0.1,0.0,0.1,-1.01,0.02,0.00,1.00000,0.00000,0.00000,0.00000,0.047,0.0090
2024,12,8,13:25:59.434,-0.292,176,0.0,0.0,0.0,-1.01,0.02,0.04,1.00000,0.00000,0.00000,0.00000,0.047,0.0040
2024,12,8,13:25:59.436,-0.290,178,-0.4,-0.4,0.0,-0.98,0.03,0.00,1.00000,0.00000,0.00000,0.00000,0.047,0.0040
2024,12,8,13:25:59.438,-0.288,180,-0.4,-0.4,0.0,-0.99,0.02,0.07,1.00000,0.00000,-0.00003,0.00000,0.047,0.0040
2024,12,8,13:25:59.440,-0.286,182,-0.1,0.0,0.0,-1.00,0.01,-0.03,1.00000,0.00000,-0.00003,0.00000,0.047,0.0010
2024,12,8,13:25:59.442,-0.284,184,-0.5,-0.5,0.0,-0.98,0.05,0.06,1.00000,0.00000,-0.00003,0.00000,0.047,0.0000
2024,12,8,13:25:59.444,-0.282,186,0.0,-0.2,0.0,-1.00,0.00,0.00,1.00000,0.00000,-0.00003,0.00000,0.047,0.0010
2024,12,8,13:25:59.446,-0.280,188,-0.6,-0.5,0.0,-0.99,0.04,0.06,1.00000,0.00000,-0.00003,0.00000,0.047,0.0010
2024,12,8,13:25:59.448,-0.278,190,-0.3,0.3,-0.1,-1.01,0.03,-0.07,1.00000,-0.00003,-0.00003,0.00000,0.047,0.0060
2024,12,8,13:25:59.450,-0.276,192,-0.1,0.1,-0.1,-1.01,0.00,0.01,1.00000,-0.00003,-0.00003,0.00000,0.047,0.0010
2024,12,8,13:25:59.452,-0.274,194,-0.2,0.4,-0.1,-1.01,0.00,-0.01,1.00000,-0.00003,-0.00003,0.00000,0.047,0.0060
2024,12,8,13:25:59.454,-0.272,196,-0.7,0.0,0.0,-1.02,0.04,0.09,1.00000,-0.00003,-0.00003,0.00000,0.047,0.0040
2024,12,8,13:25:59.456,-0.270,198,0.8,0.3,0.0,-1.01,0.02,0.00,1.00000,-0.00003,-0.00003,0.00000,0.047,0.0000
2024,12,8,13:25:59.458,-0.268,200,-0.2,-1.4,0.0,-1.02,0.00,0.05,1.00000,-0.00003,-0.00007,0.00000,0.047,0.0090
2024,12,8,13:25:59.460,-0.266,202,0.5,0.4,0.0,-1.00,0.04,-0.10,1.00000,-0.00003,-0.00003,0.00000,0.047,0.0120
2024,12,8,13:25:59.462,-0.264,204,-0.7,-1.1,0.0,-1.05,0.00,0.07,1.00000,-0.00003,-0.00007,0.00000,0.047,0.0090
2024,12,8,13:25:59.464,-0.262,206,0.5,0.2,0.1,-0.93,0.03,-0.03,1.00000,-0.00003,-0.00007,0.00000,0.047,0.0120
2024,12,8,13:25:59.466,-0.260,208,-1.3,-0.2,-0.3,-1.13,0.02,0.03,1.00000,-0.00007,-0.00007,0.00000,0.047,0.0090
2024,12,8,13:25:59.468,-0.258,210,-0.6,1.8,-0.3,-1.01,0.00,-0.02,1.00000,-0.00007,-0.00003,0.00000,0.047,0.0040
2024,12,8,13:25:59.470,-0.256,212,-0.4,-1.4,0.1,-1.06,0.00,0.00,1.00000,-0.00007,-0.00007,0.00000,0.047,0.0090
2024,12,8,13:25:59.472,-0.254,214,0.1,0.4,0.0,-1.07,0.00,-0.01,1.00000,-0.00007,-0.00003,0.00000,0.047,0.0140
2024,12,8,13:25:59.474,-0.252,216,-1.1,0.9,-0.6,-2.29,0.04,0.04,1.00000,-0.00010,-0.00003,0.00000,0.047,0.0190
2024,12,8,13:25:59.476,-0.250,218,-0.3,-1.3,0.0,-2.72,0.00,-0.11,1.00000,-0.00010,-0.00007,0.00000,0.047,0.0150
2024,12,8,13:25:59.478,-0.248,220,-0.5,-4.4,-2.2,-0.82,-0.62,0.32,1.00000,-0.00010,-0.00013,-0.00003,0.047,0.0150
2024,12,8,13:25:59.480,-0.246,222,-10.6,-4.3,-1.3,-1.92,1.14,-0.90,0.99997,-0.00030,-0.00020,-0.00003,0.047,0.0090
2024,12,8,13:25:59.482,-0.244,224,-22.5,0.1,0.7,1.19,-0.50,-0.81,0.99997,-0.00067,-0.00020,-0.00003,0.047,0.0090
2024,12,8,13:25:59.484,-0.242,226,-14.2,-23.4,0.1,-3.74,0.36,1.89,0.99997,-0.00093,-0.00060,-0.00003,0.047,0.0110
2024,12,8,13:25:59.486,-0.240,228,-26.0,8.8,-5.5,-3.04,-0.12,-0.62,0.99997,-0.00140,-0.00047,-0.00013,0.047,0.0110
2024,12,8,13:25:59.488,-0.238,230,26.1,-19.1,1.0,-2.94,-0.25,1.93,0.99997,-0.00093,-0.00080,-0.00010,0.047,0.0110
2024,12,8,13:25:59.490,-0.236,232,1.7,42.0,-7.8,-3.34,-0.51,-2.93,0.99997,-0.00090,-0.00007,-0.00023,0.047,0.0090
2024,12,8,13:25:59.492,-0.234,234,-11.0,-10.3,3.0,-2.58,1.84,2.97,0.99997,-0.00110,-0.00023,-0.00020,0.047,0.0170
2024,12,8,13:25:59.494,-0.232,236,4.4,53.2,1.5,-2.59,-0.75,-2.92,0.99997,-0.00100,0.00067,-0.00017,0.047,0.0090
2024,12,8,13:25:59.496,-0.230,238,-7.5,-4.8,-4.5,-2.50,1.12,1.51,0.99997,-0.00113,0.00057,-0.00023,0.047,0.0090
2024,12,8,13:25:59.498,-0.228,240,-1.4,1.1,-7.6,-2.47,0.06,-1.11,0.99997,-0.00117,0.00060,-0.00037,0.047,0.0090
2024,12,8,13:25:59.500,-0.226,242,8.1,-12.5,5.3,-2.38,0.08,1.07,0.99997,-0.00103,0.00037,-0.00030,0.047,0.0140
2024,12,8,13:25:59.502,-0.224,244,8.8,-5.5,3.6,-2.59,0.22,-0.34,0.99997,-0.00087,0.00027,-0.00023,0.047,0.0110
2024,12,8,13:25:59.504,-0.222,246,9.3,-8.3,-1.7,-2.78,0.31,1.12,0.99997,-0.00070,0.00013,-0.00027,0.047,0.0040
2024,12,8,13:25:59.506,-0.220,248,8.8,-10.1,4.3,-2.90,-0.10,-0.42,0.99997,-0.00057,0.00000,-0.00017,0.047,0.0030
2024,12,8,13:25:59.508,-0.218,0,21.9,-14.4,-2.9,-2.69,0.60,1.26,0.99997,-0.00017,-0.00027,-0.00023,0.046,0.0000
2024,12,8,13:25:59.510,-0.216,2,1.9,-12.5,-4.1,-3.55,-0.07,-0.98,0.99997,-0.00013,-0.00050,-0.00030,0.047,0.0090
2024,12,8,13:25:59.512,-0.214,4,21.7,19.4,-3.1,-3.15,0.39,-0.56,0.99997,0.00020,-0.00013,-0.00037,0.047,0.0110
2024,12,8,13:25:59.514,-0.212,6,14.8,-3.0,-0.9,-3.11,-0.22,-1.12,0.99997,0.00047,-0.00020,-0.00037,0.047,0.0120
2024,12,8,13:25:59.516,-0.210,8,19.1,14.2,-3.3,-2.86,0.18,0.83,0.99997,0.00080,0.00000,-0.00043,0.047,0.0120
2024,12,8,13:25:59.518,-0.208,10,17.7,15.6,1.9,-3.46,-0.15,-1.90,0.99997,0.00110,0.00030,-0.00040,0.047,0.0150
2024,12,8,13:25:59.520,-0.206,12,18.4,0.3,3.5,-3.18,0.29,2.04,0.99997,0.00143,0.00030,-0.00033,0.047,0.0110
2024,12,8,13:25:59.522,-0.204,14,25.8,27.5,-2.6,-3.37,-0.33,-1.85,0.99997,0.00187,0.00077,-0.00037,0.047,0.0070
2024,12,8,13:25:59.524,-0.202,16,3.3,-13.2,4.4,-3.03,0.34,2.56,0.99997,0.00193,0.00053,-0.00030,0.047,0.0120
2024,12,8,13:25:59.526,-0.200,18,2.7,-8.5,4.4,-3.67,-0.30,-1.51,0.99997,0.00200,0.00040,-0.00023,0.047,0.0110
2024,12,8,13:25:59.528,-0.198,20,-4.4,-23.5,0.0,-3.33,0.43,1.66,0.99997,0.00190,0.00000,-0.00023,0.047,0.0150
2024,12,8,13:25:59.530,-0.196,22,16.1,9.3,-1.7,-3.77,-0.22,-1.96,0.99997,0.00220,0.00013,-0.00027,0.047,0.0120
2024,12,8,13:25:59.532,-0.194,24,2.1,-30.6,1.8,-3.35,0.16,0.75,0.99997,0.00223,-0.00037,-0.00023,0.047,0.0120
2024,12,8,13:25:59.534,-0.192,26,25.2,21.9,-4.8,-3.86,-0.18,-1.96,0.99997,0.00267,0.00000,-0.00030,0.047,0.0110
2024,12,8,13:25:59.536,-0.190,28,11.8,-7.9,-1.2,-3.60,0.04,2.29,0.99997,0.00287,-0.00010,-0.00033,0.047,0.0150
2024,12,8,13:25:59.538,-0.188,30,25.4,25.9,-0.6,-3.84,-0.14,-1.04,0.99997,0.00333,0.00030,-0.00033,0.047,0.0070
2024,12,8,13:25:59.540,-0.186,32,6.3,-12.1,0.7,-3.64,0.39,1.64,0.99997,0.00343,0.00010,-0.00033,0.047,0.0140
2024,12,8,13:25:59.542,-0.184,34,23.5,20.2,-1.8,-3.96,-0.12,-0.41,0.99997,0.00383,0.00043,-0.00037,0.047,0.0150
2024,12,8,13:25:59.544,-0.182,36,8.9,-18.8,3.9,-3.78,0.30,1.28,0.99997,0.00400,0.00013,-0.00030,0.047,0.0110
2024,12,8,13:25:59.546,-0.180,38,21.7,17.1,-3.8,-4.05,0.03,-0.10,0.99997,0.00437,0.00043,-0.00037,0.047,0.0120
2024,12,8,13:25:59.548,-0.178,40,9.2,-17.4,0.2,-3.88,0.35,0.72,0.99997,0.00453,0.00010,-0.00037,0.047,0.0090
2024,12,8,13:25:59.550,-0.176,42,21.7,7.4,-0.6,-4.26,-0.23,-1.13,0.99997,0.00493,0.00023,-0.00037,0.047,0.0120
2024,12,8,13:25:59.552,-0.174,44,13.2,-16.2,0.9,-4.06,0.26,0.20,0.99997,0.00513,0.00000,-0.00037,0.047,0.0090
2024,12,8,13:25:59.554,-0.172,46,22.5,11.7,-2.4,-4.41,-0.16,-0.84,0.99997,0.00553,0.00017,-0.00040,0.047,0.0000
2024,12,8,13:25:59.556,-0.170,48,11.9,-13.4,3.8,-4.23,0.10,-0.29,0.99997,0.00577,-0.00003,-0.00033,0.047,0.0060
2024,12,8,13:25:59.558,-0.168,50,25.0,17.5,-0.6,-4.39,-0.03,-0.75,0.99997,0.00620,0.00023,-0.00033,0.047,0.0040
2024,12,8,13:25:59.560,-0.166,52,15.4,-8.5,1.9,-4.43,0.03,-0.91,0.99997,0.00647,0.00010,-0.00030,0.047,0.0040
2024,12,8,13:25:59.562,-0.164,54,23.6,18.7,-1.2,-4.49,-0.08,-0.18,0.99997,0.00687,0.00040,-0.00033,0.047,0.0010
2024,12,8,13:25:59.564,-0.162,56,7.2,-20.6,3.9,-4.35,0.36,1.21,0.99997,0.00700,0.00007,-0.00027,0.047,0.0040
2024,12,8,13:25:59.566,-0.160,58,22.1,13.5,-3.3,-4.34,-0.04,0.76,0.99997,0.00740,0.00030,-0.00033,0.047,0.0060
2024,12,8,13:25:59.568,-0.158,60,6.4,-15.2,2.6,-4.43,0.35,0.32,0.99997,0.00750,0.00003,-0.00027,0.047,0.0040
2024,12,8,13:25:59.570,-0.156,62,22.4,-1.1,0.1,-4.32,0.22,1.06,0.99997,0.00790,0.00000,-0.00027,0.047,0.0030
2024,12,8,13:25:59.572,-0.154,64,16.6,-15.3,0.9,-4.40,-0.02,-0.01,0.99993,0.00817,-0.00023,-0.00027,0.047,0.0000
2024,12,8,13:25:59.574,-0.152,66,13.6,-4.4,2.0,-4.31,0.21,-0.37,0.99993,0.00843,-0.00030,-0.00023,0.047,0.0110
2024,12,8,13:25:59.576,-0.150,68,21.0,-4.2,1.0,-4.57,0.03,-0.53,0.99993,0.00880,-0.00037,-0.00020,0.047,0.0110
2024,12,8,13:25:59.578,-0.148,70,25.2,2.5,-2.3,-4.37,0.08,0.51,0.99993,0.00923,-0.00033,-0.00023,0.047,0.0040
2024,12,8,13:25:59.580,-0.146,72,18.4,7.7,-0.2,-4.60,0.00,-0.59,0.99993,0.00953,-0.00020,-0.00023,0.047,0.0010
2024,12,8,13:25:59.582,-0.144,74,18.1,1.5,0.0,-4.29,0.21,0.71,0.99993,0.00987,-0.00017,-0.00023,0.047,0.0120
2024,12,8,13:25:59.584,-0.142,76,18.6,8.4,-1.2,-4.64,0.00,-0.51,0.99993,0.01020,-0.00003,-0.00027,0.047,0.0120
2024,12,8,13:25:59.586,-0.140,78,12.1,-3.7,1.2,-4.34,0.32,0.82,0.99993,0.01040,-0.00010,-0.00023,0.047,0.0110
2024,12,8,13:25:59.588,-0.138,80,15.6,-3.4,1.1,-4.48,0.02,-0.29,0.99993,0.01067,-0.00017,-0.00023,0.047,0.0110
2024,12,8,13:25:59.590,-0.136,82,12.1,-4.8,-0.8,-4.36,0.28,0.45,0.99993,0.01090,-0.00023,-0.00023,0.047,0.0090
2024,12,8,13:25:59.592,-0.134,84,13.1,-2.2,1.2,-4.46,-0.01,-0.11,0.99993,0.01113,-0.00027,-0.00023,0.047,0.0120
2024,12,8,13:25:59.594,-0.132,86,11.1,-4.6,-0.6,-4.56,0.04,0.25,0.99993,0.01130,-0.00037,-0.00023,0.047,0.0120
2024,12,8,13:25:59.596,-0.130,88,10.9,1.0,-3.5,-4.51,0.33,-0.16,0.99993,0.01150,-0.00033,-0.00030,0.047,0.0090
2024,12,8,13:25:59.598,-0.128,90,9.9,-3.0,2.4,-4.57,0.04,0.17,0.99990,0.01167,-0.00040,-0.00023,0.047,0.0090
2024,12,8,13:25:59.600,-0.126,92,10.3,0.4,1.2,-4.51,0.16,0.05,0.99990,0.01187,-0.00040,-0.00023,0.047,0.0090
2024,12,8,13:25:59.602,-0.124,94,9.8,0.8,-1.5,-4.49,0.08,-0.02,0.99990,0.01203,-0.00037,-0.00027,0.047,0.0120
2024,12,8,13:25:59.604,-0.122,96,11.0,-0.1,1.2,-4.45,0.03,0.09,0.99990,0.01223,-0.00037,-0.00023,0.047,0.0110
2024,12,8,13:25:59.606,-0.120,98,10.0,-3.6,4.0,-4.38,0.16,0.23,0.99990,0.01240,-0.00043,-0.00017,0.047,0.0120
2024,12,8,13:25:59.608,-0.118,100,6.7,3.6,-4.4,-4.58,0.17,-0.28,0.99990,0.01250,-0.00037,-0.00023,0.047,0.0040
2024,12,8,13:25:59.610,-0.116,102,5.1,1.4,-2.7,-4.45,0.21,0.35,0.99990,0.01260,-0.00033,-0.00030,0.047,0.0060
2024,12,8,13:25:59.612,-0.114,104,9.6,4.5,-1.7,-4.40,-0.02,-0.14,0.99990,0.01277,-0.00027,-0.00030,0.047,0.0010
2024,12,8,13:25:59.614,-0.112,106,5.6,0.0,-3.2,-4.58,0.16,-0.03,0.99990,0.01287,-0.00027,-0.00037,0.047,0.0040
2024,12,8,13:25:59.616,-0.110,108,8.4,0.9,-2.1,-4.51,0.09,-0.09,0.99990,0.01300,-0.00027,-0.00040,0.047,0.0040
2024,12,8,13:25:59.618,-0.108,110,9.3,-1.3,1.4,-4.36,0.13,0.05,0.99990,0.01317,-0.00027,-0.00040,0.047,0.0090
2024,12,8,13:25:59.620,-0.106,112,8.1,-1.6,-0.4,-4.41,0.11,0.06,0.99990,0.01333,-0.00030,-0.00040,0.047,0.0070
2024,12,8,13:25:59.622,-0.104,114,8.4,-2.5,-0.7,-4.59,0.12,0.35,0.99990,0.01347,-0.00033,-0.00040,0.047,0.0150
2024,12,8,13:25:59.624,-0.102,116,9.3,1.9,1.2,-4.40,0.19,-0.29,0.99990,0.01363,-0.00030,-0.00037,0.046,0.0120
2024,12,8,13:25:59.626,-0.100,118,8.6,-1.7,0.5,-4.44,-0.05,0.65,0.99990,0.01380,-0.00033,-0.00037,0.047,0.0070
2024,12,8,13:25:59.628,-0.098,120,7.9,9.1,-3.1,-4.58,0.00,-0.55,0.99990,0.01393,-0.00017,-0.00043,0.047,0.0110
2024,12,8,13:25:59.630,-0.096,122,4.0,-6.1,-0.2,-4.45,0.14,0.89,0.99990,0.01400,-0.00030,-0.00043,0.047,0.0150
2024,12,8,13:25:59.632,-0.094,124,8.6,10.2,-2.5,-4.55,-0.19,-0.01,0.99987,0.01413,-0.00010,-0.00047,0.047,0.0030
2024,12,8,13:25:59.634,-0.092,126,0.7,-10.4,-1.7,-4.30,0.50,0.64,0.99987,0.01417,-0.00030,-0.00050,0.047,0.0110
2024,12,8,13:25:59.636,-0.090,128,4.8,9.5,-1.4,-4.65,0.07,0.23,0.99987,0.01423,-0.00013,-0.00053,0.047,0.0040
2024,12,8,13:25:59.638,-0.088,130,-0.4,-9.2,0.5,-4.37,0.25,0.58,0.99987,0.01423,-0.00030,-0.00053,0.047,0.0030
2024,12,8,13:25:59.640,-0.086,132,7.3,0.0,-2.8,-4.55,-0.10,-0.35,0.99987,0.01437,-0.00030,-0.00057,0.047,0.0030
2024,12,8,13:25:59.642,-0.084,134,-3.6,-5.2,1.6,-4.56,0.45,0.08,0.99987,0.01430,-0.00037,-0.00053,0.047,0.0060
2024,12,8,13:25:59.644,-0.082,136,6.2,5.8,0.2,-4.64,-0.22,-0.16,0.99987,0.01440,-0.00027,-0.00053,0.047,0.0040
2024,12,8,13:25:59.646,-0.080,138,-0.7,0.7,-2.9,-4.60,0.06,-0.64,0.99987,0.01440,-0.00027,-0.00060,0.047,0.0090
2024,12,8,13:25:59.648,-0.078,140,3.1,12.1,-3.0,-4.66,0.12,0.19,0.99987,0.01447,-0.00003,-0.00063,0.047,0.0060
2024,12,8,13:25:59.650,-0.076,142,3.9,2.5,-2.7,-4.66,-0.29,0.63,0.99987,0.01453,0.00000,-0.00070,0.047,0.0000
2024,12,8,13:25:59.652,-0.074,144,5.8,4.2,-5.0,-4.41,0.08,1.39,0.99987,0.01463,0.00003,-0.00077,0.047,0.0000
2024,12,8,13:25:59.654,-0.072,146,-3.6,-14.8,-2.7,-4.44,0.14,-0.36,0.99987,0.01457,-0.00020,-0.00083,0.047,0.0040
2024,12,8,13:25:59.656,-0.070,148,-5.4,-9.7,0.4,-4.61,-0.04,1.61,0.99987,0.01447,-0.00037,-0.00083,0.047,0.0040
2024,12,8,13:25:59.658,-0.068,150,2.9,-2.2,-2.2,-4.55,0.25,-1.06,0.99987,0.01450,-0.00040,-0.00087,0.047,0.0070
2024,12,8,13:25:59.660,-0.066,152,-10.3,-10.0,1.0,-4.61,0.37,0.76,0.99987,0.01433,-0.00057,-0.00083,0.047,0.0090
2024,12,8,13:25:59.662,-0.064,154,3.0,15.9,-0.6,-4.64,0.08,-1.31,0.99987,0.01440,-0.00030,-0.00087,0.047,0.0110
2024,12,8,13:25:59.664,-0.062,156,-7.1,-8.1,1.2,-4.43,0.29,1.65,0.99987,0.01427,-0.00043,-0.00083,0.047,0.0110
2024,12,8,13:25:59.666,-0.060,158,8.4,21.1,-4.7,-4.60,-0.13,-0.58,0.99987,0.01440,-0.00007,-0.00090,0.047,0.0110
2024,12,8,13:25:59.668,-0.058,160,-10.4,-19.5,1.3,-4.42,0.41,1.61,0.99987,0.01423,-0.00040,-0.00090,0.047,0.0060
2024,12,8,13:25:59.670,-0.056,162,5.3,16.2,-4.1,-4.46,0.42,0.26,0.99987,0.01433,-0.00013,-0.00097,0.047,0.0060
2024,12,8,13:25:59.672,-0.054,164,-8.8,-21.6,-2.9,-4.58,0.00,0.72,0.99987,0.01417,-0.00050,-0.00103,0.047,0.0010
2024,12,8,13:25:59.674,-0.052,166,0.4,7.1,-0.8,-4.46,0.02,0.88,0.99987,0.01417,-0.00037,-0.00103,0.047,0.0070
2024,12,8,13:25:59.676,-0.050,168,-7.8,-15.6,0.8,-4.59,0.50,-0.19,0.99990,0.01403,-0.00063,-0.00103,0.048,0.0150
2024,12,8,13:25:59.678,-0.048,170,5.1,15.4,-4.8,-4.65,-0.01,-0.45,0.99987,0.01413,-0.00037,-0.00110,0.047,0.0070
2024,12,8,13:25:59.680,-0.046,172,-1.1,-3.0,0.3,-4.51,0.40,-0.85,0.99987,0.01410,-0.00043,-0.00110,0.047,0.0110
2024,12,8,13:25:59.682,-0.044,174,3.8,11.6,-2.2,-4.29,-0.40,0.55,0.99987,0.01417,-0.00023,-0.00113,0.047,0.0060
2024,12,8,13:25:59.684,-0.042,176,0.9,5.3,-5.9,-4.88,-0.22,-1.41,0.99987,0.01420,-0.00013,-0.00123,0.047,0.0030
2024,12,8,13:25:59.686,-0.040,178,1.8,5.2,-4.1,-4.48,0.21,1.33,0.99987,0.01423,-0.00003,-0.00130,0.047,0.0060
2024,12,8,13:25:59.688,-0.038,180,6.1,15.2,-3.7,-4.52,-0.20,-1.21,0.99987,0.01433,0.00020,-0.00137,0.047,0.0110
2024,12,8,13:25:59.690,-0.036,182,-1.7,-6.4,-2.9,-4.42,0.30,1.43,0.99987,0.01430,0.00010,-0.00143,0.047,0.0090
2024,12,8,13:25:59.692,-0.034,184,-4.8,-3.3,-4.4,-4.62,0.00,-1.16,0.99987,0.01420,0.00003,-0.00150,0.047,0.0060
2024,12,8,13:25:59.694,-0.032,186,-10.6,-20.0,1.2,-4.35,0.29,1.28,0.99990,0.01403,-0.00030,-0.00147,0.047,0.0030
2024,12,8,13:25:59.696,-0.030,188,9.4,9.3,-1.7,-4.42,-0.34,-1.14,0.99987,0.01420,-0.00013,-0.00150,0.047,0.0040
2024,12,8,13:25:59.698,-0.028,190,-15.8,-15.1,-2.2,-4.69,0.04,0.02,0.99990,0.01393,-0.00040,-0.00157,0.047,0.0030
2024,12,8,13:25:59.700,-0.026,192,7.2,14.9,-3.1,-4.68,-0.04,-1.00,0.99987,0.01403,-0.00013,-0.00160,0.047,0.0060
2024,12,8,13:25:59.702,-0.024,194,-12.0,-17.7,1.5,-4.36,0.16,1.79,0.99990,0.01383,-0.00043,-0.00160,0.047,0.0010
2024,12,8,13:25:59.704,-0.022,196,0.2,20.5,-8.3,-4.66,-0.04,-0.30,0.99990,0.01383,-0.00007,-0.00173,0.047,0.0120
2024,12,8,13:25:59.706,-0.020,198,-13.4,-18.4,-2.2,-4.37,0.25,1.04,0.99990,0.01360,-0.00040,-0.00177,0.047,0.0110
2024,12,8,13:25:59.708,-0.018,200,-4.5,10.7,-4.8,-4.58,0.04,0.48,0.99990,0.01353,-0.00020,-0.00183,0.047,0.0110
2024,12,8,13:25:59.710,-0.016,202,-13.4,-20.9,-5.0,-4.62,0.06,0.66,0.99990,0.01330,-0.00057,-0.00193,0.047,0.0070
2024,12,8,13:25:59.712,-0.014,204,-4.6,3.5,-1.1,-4.51,0.40,1.21,0.99990,0.01320,-0.00050,-0.00197,0.047,0.0120
2024,12,8,13:25:59.714,-0.012,206,-13.9,-11.3,-1.6,-4.59,-0.07,-0.46,0.99990,0.01297,-0.00070,-0.00200,0.047,0.0170
2024,12,8,13:25:59.716,-0.010,208,-0.4,14.5,-5.8,-4.58,-0.11,0.10,0.99990,0.01297,-0.00043,-0.00210,0.047,0.0120
2024,12,8,13:25:59.718,-0.008,210,-5.1,3.5,-1.5,-4.61,-0.15,-1.38,0.99990,0.01287,-0.00040,-0.00213,0.047,0.0030
2024,12,8,13:25:59.720,-0.006,212,-4.9,-0.1,-1.3,-4.44,0.07,1.45,0.99990,0.01277,-0.00040,-0.00213,0.047,0.0010
2024,12,8,13:25:59.722,-0.004,214,0.0,13.3,-8.5,-4.89,-0.27,-1.03,0.99990,0.01277,-0.00017,-0.00230,0.047,0.0030
2024,12,8,13:25:59.724,-0.002,216,-12.0,-6.0,-3.4,-4.66,0.44,1.32,0.99990,0.01257,-0.00027,-0.00237,0.047,0.0040
2024,12,8,13:25:59.726,0.000,218,4.8,14.3,-5.2,-4.54,0.02,-0.30,0.99990,0.01267,0.00000,-0.00243,0.047,0.0030
2024,12,8,13:25:59.728,0.002,220,-16.0,-19.1,-5.4,-4.40,-0.08,1.15,0.99990,0.01237,-0.00033,-0.00253,0.047,0.0000
2024,12,8,13:25:59.730,0.004,222,2.6,9.1,-7.6,-4.53,-0.14,-1.09,0.99990,0.01243,-0.00017,-0.00267,0.047,0.0070
2024,12,8,13:25:59.732,0.006,224,-12.3,-11.6,1.4,-4.64,0.46,-0.14,0.99990,0.01220,-0.00040,-0.00263,0.047,0.0000
2024,12,8,13:25:59.734,0.008,226,0.5,14.7,-6.1,-4.59,0.04,-0.37,0.99990,0.01220,-0.00013,-0.00273,0.047,0.0030
2024,12,8,13:25:59.736,0.010,228,-2.5,-7.2,-1.3,-4.61,-0.37,-0.86,0.99990,0.01217,-0.00027,-0.00277,0.047,0.0070
2024,12,8,13:25:59.738,0.012,230,3.3,4.6,-0.3,-4.45,0.32,0.70,0.99990,0.01223,-0.00017,-0.00277,0.043,0.0170
2024,12,8,13:25:59.740,0.014,232,-7.9,-14.0,0.8,-4.56,-0.07,-0.04,0.99990,0.01210,-0.00040,-0.00277,0.047,0.0110
2024,12,8,13:25:59.742,0.016,234,-5.8,-6.5,-6.6,-4.41,-0.21,1.30,0.99990,0.01197,-0.00053,-0.00290,0.047,0.0030
2024,12,8,13:25:59.744,0.018,236,-3.6,-4.8,-2.9,-4.54,-0.15,-0.69,0.99990,0.01193,-0.00060,-0.00293,0.047,0.0040
2024,12,8,13:25:59.746,0.020,238,-6.9,-14.2,-4.8,-4.45,0.07,0.83,0.99990,0.01180,-0.00087,-0.00303,0.047,0.0030
2024,12,8,13:25:59.748,0.022,240,3.9,4.2,-7.1,-4.53,-0.45,-0.54,0.99990,0.01187,-0.00077,-0.00317,0.047,0.0040
2024,12,8,13:25:59.750,0.024,242,-6.4,-3.7,0.0,-4.58,0.03,-0.75,0.99990,0.01177,-0.00083,-0.00317,0.047,0.0120
2024,12,8,13:25:59.752,0.026,244,2.3,2.8,-1.7,-4.62,-0.10,0.67,0.99990,0.01180,-0.00080,-0.00320,0.047,0.0070
2024,12,8,13:25:59.754,0.028,246,-7.6,-11.9,-2.7,-4.65,-0.09,0.03,0.99990,0.01167,-0.00100,-0.00323,0.047,0.0150
2024,12,8,13:25:59.756,0.030,248,1.4,-5.6,-2.4,-4.33,0.00,1.23,0.99990,0.01170,-0.00110,-0.00327,0.047,0.0110
2024,12,8,13:25:59.758,0.032,0,0.0,-12.4,-0.4,-4.55,-0.63,-1.03,0.99990,0.01170,-0.00133,-0.00330,0.047,0.0220
2024,12,8,13:25:59.760,0.034,2,-9.7,-20.2,-4.0,-4.49,0.40,1.65,0.99990,0.01150,-0.00167,-0.00337,0.046,0.0090
2024,12,8,13:25:59.762,0.036,4,5.2,7.4,-6.2,-4.79,-0.30,-2.14,0.99990,0.01160,-0.00153,-0.00347,0.047,0.0040
2024,12,8,13:25:59.764,0.038,6,-4.8,-32.4,-1.0,-4.50,0.07,0.95,0.99990,0.01153,-0.00210,-0.00350,0.047,0.0000
2024,12,8,13:25:59.766,0.040,8,20.9,17.9,-4.5,-4.66,-0.42,-1.60,0.99990,0.01190,-0.00180,-0.00357,0.047,0.0010
2024,12,8,13:25:59.768,0.042,10,6.8,-18.6,-3.4,-4.48,0.08,2.07,0.99990,0.01200,-0.00213,-0.00363,0.047,0.0060
2024,12,8,13:25:59.770,0.044,12,21.9,22.1,-5.7,-4.57,-0.35,0.10,0.99990,0.01240,-0.00173,-0.00373,0.047,0.0070
2024,12,8,13:25:59.772,0.046,14,2.3,-28.6,-1.2,-4.44,0.19,0.63,0.99990,0.01243,-0.00223,-0.00377,0.047,0.0070
2024,12,8,13:25:59.774,0.048,16,18.6,4.8,-4.5,-4.57,0.15,1.89,0.99990,0.01277,-0.00213,-0.00383,0.047,0.0120
2024,12,8,13:25:59.776,0.050,18,1.8,-13.9,0.9,-4.76,0.48,-0.98,0.99990,0.01280,-0.00240,-0.00383,0.047,0.0090
2024,12,8,13:25:59.778,0.052,20,17.1,19.3,-5.2,-5.02,-0.18,-0.66,0.99990,0.01310,-0.00207,-0.00390,0.047,0.0120
2024,12,8,13:25:59.780,0.054,22,21.3,-12.1,-2.4,-4.46,-0.08,0.00,0.99987,0.01347,-0.00227,-0.00397,0.047,0.0150
2024,12,8,13:25:59.782,0.056,24,19.1,18.1,-3.2,-4.53,0.32,-0.51,0.99987,0.01380,-0.00193,-0.00400,0.050,0.0110
2024,12,8,13:25:59.784,0.058,26,22.6,-6.2,-2.7,-4.52,-0.23,-0.71,0.99987,0.01420,-0.00207,-0.00407,0.045,0.0110
2024,12,8,13:25:59.786,0.060,28,27.7,11.7,-4.3,-4.36,-0.28,0.99,0.99987,0.01467,-0.00187,-0.00413,0.047,0.0150
2024,12,8,13:25:59.788,0.062,30,17.0,6.6,-0.4,-4.82,-0.18,-1.71,0.99987,0.01497,-0.00173,-0.00413,0.047,0.0140
2024,12,8,13:25:59.790,0.064,32,16.5,-6.9,-1.7,-4.55,0.13,1.37,0.99987,0.01527,-0.00187,-0.00417,0.047,0.0030
2024,12,8,13:25:59.792,0.066,34,14.5,-10.0,-2.0,-4.74,0.05,-0.42,0.99987,0.01550,-0.00203,-0.00420,0.047,0.0060
2024,12,8,13:25:59.794,0.068,36,8.4,-14.6,3.1,-4.40,0.30,1.33,0.99983,0.01567,-0.00230,-0.00417,0.047,0.0110
2024,12,8,13:25:59.796,0.070,38,16.0,4.8,-0.5,-4.89,-0.06,-1.31,0.99983,0.01593,-0.00220,-0.00417,0.047,0.0120
2024,12,8,13:25:59.798,0.072,40,15.9,-23.1,3.0,-4.28,0.28,1.00,0.99983,0.01620,-0.00263,-0.00410,0.047,0.0190
2024,12,8,13:25:59.800,0.074,42,27.8,12.8,1.9,-4.46,0.28,-1.56,0.99983,0.01670,-0.00240,-0.00407,0.047,0.0190
2024,12,8,13:25:59.802,0.076,44,10.0,-21.9,0.5,-4.75,0.01,0.12,0.99983,0.01687,-0.00277,-0.00407,0.047,0.0000
2024,12,8,13:25:59.804,0.078,46,31.7,11.0,-2.7,-4.72,-0.36,-0.71,0.99983,0.01743,-0.00260,-0.00410,0.046,0.0140
2024,12,8,13:25:59.806,0.080,48,20.9,-10.3,3.3,-4.56,0.33,0.84,0.99980,0.01780,-0.00277,-0.00407,0.047,0.0150
2024,12,8,13:25:59.808,0.082,50,23.6,9.1,-1.1,-4.63,0.02,-0.31,0.99980,0.01820,-0.00260,-0.00407,0.047,0.0090
2024,12,8,13:25:59.810,0.084,52,22.8,-11.3,1.0,-4.52,0.08,0.24,0.99980,0.01860,-0.00280,-0.00407,0.047,0.0030
2024,12,8,13:25:59.812,0.086,54,27.1,2.4,3.8,-4.51,0.38,0.45,0.99980,0.01907,-0.00277,-0.00400,0.047,0.0040
2024,12,8,13:25:59.814,0.088,56,21.0,-19.3,2.5,-4.77,-0.08,-0.33,0.99977,0.01943,-0.00310,-0.00393,0.047,0.0040
2024,12,8,13:25:59.816,0.090,58,40.4,30.3,-0.7,-4.56,-0.41,-0.84,0.99977,0.02017,-0.00260,-0.00393,0.047,0.0070
2024,12,8,13:25:59.818,0.092,60,27.5,-12.8,3.8,-4.75,-0.49,-1.01,0.99977,0.02063,-0.00280,-0.00390,0.047,0.0040
2024,12,8,13:25:59.820,0.094,62,38.3,19.6,0.2,-4.67,-0.33,-1.20,0.99973,0.02130,-0.00247,-0.00387,0.047,0.0060
2024,12,8,13:25:59.822,0.096,64,23.8,-20.7,5.9,-4.66,0.16,-0.37,0.99973,0.02173,-0.00283,-0.00377,0.047,0.0060
2024,12,8,13:25:59.824,0.098,66,47.4,26.0,2.2,-4.47,0.05,-1.17,0.99973,0.02257,-0.00240,-0.00373,0.051,0.0250
2024,12,8,13:25:59.826,0.100,68,37.7,-5.1,1.5,-4.86,-0.08,-1.41,0.99970,0.02320,-0.00247,-0.00370,0.047,0.0120
2024,12,8,13:25:59.828,0.102,70,44.8,6.0,3.8,-4.47,-0.35,0.67,0.99970,0.02400,-0.00237,-0.00363,0.050,0.0040
2024,12,8,13:25:59.830,0.104,72,31.0,-21.4,5.2,-4.62,-0.08,-0.47,0.99967,0.02453,-0.00277,-0.00353,0.047,0.0030
2024,12,8,13:25:59.832,0.106,74,25.1,-18.8,4.3,-4.70,0.28,2.79,0.99967,0.02497,-0.00310,-0.00347,0.047,0.0070
2024,12,8,13:25:59.834,0.108,76,35.6,-1.1,3.8,-4.73,-0.34,-2.79,0.99963,0.02560,-0.00310,-0.00340,0.047,0.0070
2024,12,8,13:25:59.836,0.110,78,14.9,-30.0,7.2,-4.59,0.84,1.34,0.99963,0.02583,-0.00363,-0.00330,0.047,0.0030
2024,12,8,13:25:59.838,0.112,80,41.8,17.2,2.6,-4.98,-0.39,-1.82,0.99963,0.02657,-0.00333,-0.00323,0.047,0.0010
2024,12,8,13:25:59.840,0.114,82,24.3,-23.2,7.3,-4.69,0.01,0.35,0.99960,0.02700,-0.00377,-0.00310,0.047,0.0000
2024,12,8,13:25:59.842,0.116,84,43.6,10.0,2.4,-4.91,-0.44,-1.01,0.99960,0.02777,-0.00360,-0.00307,0.047,0.0000
2024,12,8,13:25:59.844,0.118,86,31.3,-0.9,5.9,-4.60,0.02,1.36,0.99957,0.02830,-0.00360,-0.00297,0.047,0.0140
2024,12,8,13:25:59.846,0.120,88,37.0,13.2,3.6,-4.75,0.02,-0.57,0.99957,0.02897,-0.00337,-0.00290,0.047,0.0040
2024,12,8,13:25:59.848,0.122,90,28.7,-9.0,6.7,-4.65,0.59,0.43,0.99953,0.02947,-0.00353,-0.00277,0.043,0.0000
2024,12,8,13:25:59.850,0.124,92,38.1,2.9,1.8,-4.66,-0.02,0.69,0.99953,0.03013,-0.00350,-0.00273,0.047,0.0010
2024,12,8,13:25:59.852,0.126,94,32.1,-13.3,4.7,-4.64,0.23,-0.27,0.99950,0.03067,-0.00373,-0.00267,0.047,0.0060
2024,12,8,13:25:59.854,0.128,96,48.1,11.9,2.8,-4.69,-0.22,-0.09,0.99947,0.03153,-0.00353,-0.00260,0.047,0.0140
2024,12,8,13:25:59.856,0.130,98,35.0,3.3,4.4,-4.96,-0.24,-0.57,0.99947,0.03213,-0.00347,-0.00253,0.047,0.0060
2024,12,8,13:25:59.858,0.132,100,32.7,4.0,2.4,-4.61,0.00,-0.21,0.99943,0.03270,-0.00340,-0.00247,0.047,0.0060
2024,12,8,13:25:59.860,0.134,102,24.5,-7.4,5.6,-4.81,-0.67,0.18,0.99943,0.03313,-0.00353,-0.00237,0.047,0.0110
2024,12,8,13:25:59.862,0.136,104,25.2,6.0,4.5,-4.58,0.12,0.38,0.99940,0.03357,-0.00343,-0.00230,0.047,0.0060
2024,12,8,13:25:59.864,0.138,106,21.9,6.5,3.4,-4.83,0.32,-0.45,0.99940,0.03397,-0.00333,-0.00223,0.047,0.0090
2024,12,8,13:25:59.866,0.140,108,13.8,5.1,4.2,-4.79,0.06,-0.28,0.99940,0.03420,-0.00323,-0.00213,0.047,0.0000
2024,12,8,13:25:59.868,0.142,110,13.2,6.0,4.5,-4.71,0.34,0.17,0.99937,0.03443,-0.00313,-0.00207,0.047,0.0070
2024,12,8,13:25:59.870,0.144,112,25.9,-2.8,3.7,-4.59,-0.43,-0.04,0.99937,0.03487,-0.00320,-0.00200,0.047,0.0040
2024,12,8,13:25:59.872,0.146,114,19.4,-7.8,4.0,-4.56,-0.56,0.12,0.99937,0.03523,-0.00333,-0.00193,0.047,0.0090
2024,12,8,13:25:59.874,0.148,116,7.6,-8.8,4.3,-4.90,0.12,0.48,0.99933,0.03537,-0.00350,-0.00187,0.047,0.0070
2024,12,8,13:25:59.876,0.150,118,14.9,15.1,1.4,-4.80,-0.08,-0.87,0.99933,0.03560,-0.00323,-0.00183,0.047,0.0000
2024,12,8,13:25:59.878,0.152,120,12.6,-10.0,5.6,-4.72,-0.06,-0.25,0.99933,0.03583,-0.00340,-0.00173,0.047,0.0000
2024,12,8,13:25:59.880,0.154,122,14.4,12.1,3.3,-4.78,-0.11,-0.80,0.99933,0.03607,-0.00320,-0.00167,0.046,0.0000
2024,12,8,13:25:59.882,0.156,124,8.0,-12.0,3.6,-4.51,0.69,1.21,0.99933,0.03623,-0.00340,-0.00160,0.046,0.0030
2024,12,8,13:25:59.884,0.158,126,14.2,15.4,1.4,-4.95,-0.39,0.13,0.99930,0.03647,-0.00313,-0.00157,0.047,0.0090
2024,12,8,13:25:59.886,0.160,128,4.4,0.1,4.6,-4.72,0.41,-0.12,0.99930,0.03653,-0.00313,-0.00150,0.047,0.0040
2024,12,8,13:25:59.888,0.162,130,11.8,2.8,3.1,-4.50,0.28,-0.40,0.99930,0.03677,-0.00310,-0.00143,0.047,0.0070
2024,12,8,13:25:59.890,0.164,132,9.4,5.5,4.5,-4.70,0.04,0.14,0.99930,0.03693,-0.00300,-0.00137,0.047,0.0000
2024,12,8,13:25:59.892,0.166,134,-4.5,-11.8,5.9,-5.00,-0.03,0.47,0.99930,0.03683,-0.00320,-0.00127,0.052,0.0000
2024,12,8,13:25:59.894,0.168,136,20.4,1.6,-1.1,-4.65,-0.56,1.10,0.99930,0.03720,-0.00317,-0.00127,0.047,0.0090
2024,12,8,13:25:59.896,0.170,138,0.8,1.4,3.8,-4.83,0.61,-0.87,0.99930,0.03720,-0.00317,-0.00120,0.047,0.0060
2024,12,8,13:25:59.898,0.172,140,3.5,-13.0,3.9,-4.57,0.30,0.10,0.99927,0.03727,-0.00340,-0.00113,0.047,0.0030
2024,12,8,13:25:59.900,0.174,142,12.2,10.1,1.2,-4.96,-0.18,-0.07,0.99927,0.03750,-0.00320,-0.00110,0.047,0.0040
2024,12,8,13:25:59.902,0.176,144,0.8,-7.4,7.2,-4.63,0.53,-0.61,0.99927,0.03750,-0.00333,-0.00100,0.047,0.0010
2024,12,8,13:25:59.904,0.178,146,12.5,13.0,2.1,-4.87,-0.35,0.21,0.99927,0.03773,-0.00313,-0.00093,0.047,0.0040
2024,12,8,13:25:59.906,0.180,148,-11.8,-11.9,5.2,-4.64,0.55,0.46,0.99927,0.03750,-0.00333,-0.00087,0.048,0.0060
2024,12,8,13:25:59.908,0.182,150,1.6,7.7,3.1,-4.54,0.07,0.59,0.99927,0.03753,-0.00320,-0.00080,0.047,0.0030
2024,12,8,13:25:59.910,0.184,152,-21.6,-18.0,6.9,-4.72,0.46,1.16,0.99930,0.03717,-0.00353,-0.00070,0.047,0.0000
2024,12,8,13:25:59.912,0.186,154,-13.9,7.6,2.1,-4.67,0.23,1.25,0.99930,0.03693,-0.00340,-0.00067,0.048,0.0000
2024,12,8,13:25:59.914,0.188,156,-33.0,-13.9,6.4,-4.76,0.78,0.32,0.99930,0.03633,-0.00363,-0.00057,0.047,0.0000
