State - Time (s),State - Stage,State - PX (m),State - PY (m),State - PZ (m),State - VX (m/s),State - VY (m/s),State - VZ (m/s),State - AX (m/s/s),State - AY (m/s/s),State - AZ (m/s/s),MAX-M10S - Lat,MAX-M10S - Lon,MAX-M10S - Alt (m),MAX-M10S - Disp X (m),MAX-M10S - Disp Y (m),MAX-M10S - Disp Z (m),MAX-M10S - Fix Quality,BMI088andLIS3MDL - AccX,BMI088andLIS3MDL - AccY,BMI088andLIS3MDL - AccZ,BMI088andLIS3MDL - GyroX,BMI088andLIS3MDL - GyroY,BMI088andLIS3MDL - GyroZ,BMI088andLIS3MDL - MagX,BMI088andLIS3MDL - MagY,BMI088andLIS3MDL - MagZ,BMI088andLIS3MDL - OriX,BMI088andLIS3MDL - OriY,BMI088andLIS3MDL - OriZ,BMI088andLIS3MDL - OriW,DPS310 - Pres (hPa),DPS310 - Temp (C),DPS310 - Alt ASL (ft),DPS310 - Alt AGL (ft),MS5611 - Pres (hPa),MS5611 - Temp (C),MS5611 - Alt ASL (ft),MS5611 - Alt AGL (ft)
12.929,0,0.020,0.019,-0.068,-0.006,0.122,-0.036,0.044,0.110,0.036,0.0000000,0.0000000,0.000,0.000,0.000,0.000,0,0.963,-0.675,-9.776,0.034,-0.058,-0.147,-1200.000,300.000,349.000,-0.997,-0.058,-0.044,0.032,1008.385,18.622,40.562,-0.046,1009.100,19.180,34.589,0.526
17.929,0,0.032,0.013,-0.070,-0.063,0.156,-0.309,-0.069,0.108,-0.252,0.0000000,0.0000000,0.000,0.000,0.000,0.000,0,0.682,-0.575,-9.517,-0.026,-0.028,-0.019,-1184.000,351.000,299.000,-0.996,-0.078,-0.036,0.027,1008.363,18.675,40.746,0.020,1009.120,19.250,34.422,0.067
22.929,0,0.029,-0.007,-0.025,0.079,-0.022,-0.093,0.075,0.000,-0.053,0.0000000,0.0000000,0.000,0.000,0.000,0.000,0,0.934,-0.402,-9.704,0.045,-0.075,0.119,-1217.000,325.000,400.000,-0.996,-0.081,-0.042,0.025,1008.365,18.701,40.730,0.072,1009.140,19.330,34.255,0.117
27.929,0,0.028,0.004,0.023,-0.002,0.031,-0.113,-0.020,-0.000,-0.069,0.0000000,0.0000000,0.000,0.000,0.000,0.000,0,0.869,-0.496,-9.690,-0.006,-0.030,0.049,-1205.000,333.000,365.000,-0.997,-0.063,-0.044,0.028,1008.356,18.759,40.801,0.142,1009.100,19.360,34.589,0.376
32.929,0,0.012,0.014,-0.073,0.008,-0.117,-0.159,-0.027,-0.035,-0.140,39.0824023,-75.8752711,-3.750,-0.024,0.078,0.036,4,0.869,-0.330,-9.625,-0.053,0.036,0.011,-1244.000,305.000,347.000,-0.998,-0.031,-0.046,0.020,1008.356,18.789,40.805,0.037,1009.010,19.400,35.340,0.893
37.929,0,-0.176,0.016,0.102,0.065,0.032,-0.090,0.055,-0.006,-0.071,39.0823969,-75.8752698,-2.423,-0.190,-0.031,0.401,4,0.927,-0.496,-9.682,0.034,-0.107,-0.117,-1204.000,351.000,287.000,-0.998,-0.030,-0.044,0.027,1008.338,18.818,40.956,0.200,1009.050,19.440,35.006,0.484
42.929,0,-0.156,0.138,-0.016,0.074,0.085,-0.116,0.115,0.014,-0.061,39.0823912,-75.8752684,-1.560,-0.150,0.061,0.235,4,0.963,-0.481,-9.690,-0.009,-0.119,-0.162,-1191.000,283.000,252.000,-0.999,-0.020,-0.043,0.025,1008.349,18.856,40.860,0.030,1009.120,19.480,34.422,-0.117
47.929,0,-0.334,0.283,-0.174,-0.157,0.118,-0.137,-0.088,0.031,-0.057,39.0823843,-75.8752638,0.503,-0.372,0.268,1.409,6,0.833,-0.510,-9.704,-0.028,0.079,0.072,-1208.000,298.000,311.000,-0.998,-0.023,-0.047,0.025,1008.365,18.874,40.727,-0.073,1009.150,19.520,34.171,-0.201
52.929,0,0.077,0.065,-0.033,-0.027,-0.090,-0.127,-0.056,-0.032,-0.098,39.0823826,-75.8752559,2.648,0.075,0.133,0.113,6,0.898,-0.438,-9.661,0.004,0.072,0.064,-1204.000,319.000,246.000,-0.998,0.011,-0.049,0.024,1008.352,18.901,40.835,0.079,1009.100,19.540,34.589,-0.050
57.929,0,0.124,0.032,-0.096,0.086,-0.019,-0.168,0.085,-0.042,-0.109,39.0823854,-75.8752540,2.709,0.083,0.032,0.005,6,0.905,-0.488,-9.647,0.026,-0.126,-0.017,-1184.000,314.000,257.000,-0.997,0.056,-0.044,0.024,1008.367,18.943,40.710,-0.019,1009.120,19.570,34.422,-0.008
62.929,0,0.326,-0.062,-0.250,-0.031,-0.025,-0.178,-0.014,0.059,-0.164,39.0823945,-75.8752543,1.868,0.320,0.000,-0.235,7,0.869,-0.589,-9.589,-0.055,-0.028,-0.023,-1161.000,333.000,312.000,-0.997,0.047,-0.047,0.025,1008.366,18.959,40.719,-0.139,1009.120,19.590,34.422,-0.142
67.929,0,0.113,-0.015,-0.323,0.011,-0.053,-0.199,0.006,-0.039,-0.090,39.0823994,-75.8752543,1.270,0.090,-0.010,-0.089,7,0.905,-0.431,-9.668,0.147,-0.009,-0.021,-1171.000,353.000,241.000,-0.996,0.079,-0.048,0.020,1008.386,18.979,40.554,-0.194,1009.170,19.620,34.004,-0.417
72.929,0,0.102,0.021,-0.201,0.060,0.082,-0.214,0.074,0.090,-0.122,39.0824015,-75.8752542,0.962,0.072,0.009,-0.093,7,0.912,-0.510,-9.632,-0.104,-0.028,0.134,-1176.000,312.000,310.000,-0.990,0.136,-0.047,0.015,1008.392,18.998,40.498,-0.093,1009.150,19.640,34.171,-0.309
77.929,0,0.037,-0.022,-0.269,0.001,0.028,-0.119,0.008,0.089,-0.069,39.0824036,-75.8752543,0.570,0.050,-0.010,-0.062,7,0.934,-0.517,-9.682,-0.045,0.072,-0.036,-1199.000,323.000,255.000,-0.990,0.132,-0.051,0.015,1008.390,19.019,40.518,-0.157,1009.200,19.660,33.754,-0.751
82.929,0,-0.013,0.017,-0.057,-0.022,0.011,-0.112,-0.056,-0.026,-0.139,39.0824041,-75.8752547,0.466,-0.000,0.008,-0.030,7,0.869,-0.366,-9.625,-0.062,0.047,0.087,-1157.000,326.000,249.000,-0.987,0.154,-0.050,0.014,1008.377,19.038,40.624,-0.025,1009.070,19.680,34.839,0.309
87.929,0,-0.015,-0.011,-0.290,-0.037,-0.001,-0.274,-0.007,0.016,-0.085,39.0824048,-75.8752543,0.254,0.030,0.008,-0.101,7,0.934,-0.474,-9.668,0.040,0.038,-0.081,-1202.000,325.000,254.000,-0.990,0.127,-0.051,0.017,1008.375,19.063,40.640,-0.256,1009.170,19.690,34.004,-0.576
92.929,0,0.025,-0.013,-0.141,-0.083,0.062,-0.183,-0.063,0.070,-0.168,39.0824070,-75.8752543,-0.372,0.089,-0.009,-0.168,7,0.833,-0.445,-9.596,-0.066,0.009,-0.181,-1186.000,277.000,313.000,-0.990,0.133,-0.050,0.014,1008.353,19.091,40.824,0.020,1009.030,19.710,35.173,0.442
97.929,0,0.044,0.022,-0.057,0.008,0.004,-0.164,0.015,0.022,-0.095,39.0824095,-75.8752539,-1.064,0.049,0.008,-0.175,7,0.898,-0.323,-9.668,-0.049,0.017,-0.075,-1165.000,318.000,243.000,-0.992,0.113,-0.047,0.010,1008.367,19.088,40.710,-0.007,1009.090,19.730,34.672,0.183
102.929,0,0.057,0.020,-0.388,-0.004,0.004,-0.149,-0.011,0.033,-0.085,39.0824111,-75.8752534,-1.453,0.033,0.024,-0.099,7,0.898,-0.409,-9.675,0.047,-0.058,0.017,-1159.000,324.000,298.000,-0.992,0.120,-0.049,0.014,1008.331,19.161,41.009,-0.198,1009.140,19.750,34.255,-0.810
107.929,0,-0.034,0.010,0.033,-0.007,-0.058,-0.110,0.013,-0.091,-0.050,39.0824113,-75.8752531,-1.509,-0.023,0.010,0.017,8,0.919,-0.323,-9.711,0.043,-0.006,0.026,-1180.000,284.000,257.000,-0.982,0.183,-0.048,0.012,1008.312,19.185,41.165,0.069,1009.050,19.770,35.006,0.000
112.929,0,0.804,0.666,-0.202,0.151,0.626,-0.136,-0.721,0.020,-0.104,39.0824076,-75.8752529,-1.301,-0.020,-0.013,0.108,8,-0.445,-0.711,-9.697,-0.128,-0.092,0.006,-1345.000,678.000,137.000,-0.980,0.193,-0.021,0.046,1008.332,19.191,41.004,-0.193,1009.020,19.780,35.256,0.167
117.929,0,-0.039,-0.023,0.076,-0.013,-0.006,-0.096,-0.022,0.052,-0.033,39.0824078,-75.8752539,-1.149,-0.028,-0.020,0.145,8,0.151,0.101,-9.776,0.017,0.002,-0.181,-1400.000,654.000,158.000,-0.986,0.167,-0.008,-0.009,1008.320,19.223,41.098,0.117,1009.120,19.800,34.422,-0.334
122.929,0,-0.078,-0.077,0.090,0.038,-0.030,-0.079,-0.000,-0.009,-0.133,39.0824049,-75.8752555,0.000,-0.108,-0.041,0.423,7,0.115,0.136,-9.675,-0.051,-0.032,0.075,-1439.000,662.000,133.000,-0.989,0.147,-0.005,-0.007,1008.324,19.234,41.065,0.204,1009.120,19.810,34.422,-0.242
127.929,0,0.013,0.059,-0.011,-0.231,-0.084,-0.057,-0.165,0.006,0.054,39.0824044,-75.8752542,0.190,0.125,0.101,-0.330,7,-0.237,0.381,-9.855,0.017,0.004,0.023,-1440.000,689.000,141.000,-0.989,0.149,0.006,-0.016,1008.350,19.252,40.848,0.042,1009.120,19.830,34.422,-0.109
132.929,0,-0.038,0.119,0.064,-0.112,0.090,-0.064,-0.149,0.163,-0.085,39.0824066,-75.8752494,-0.330,0.007,0.101,0.079,10,-0.108,0.180,-9.726,0.053,0.000,-0.130,-1440.000,670.000,226.000,-0.994,0.110,-0.002,-0.016,1008.341,19.277,40.925,0.205,1009.080,19.840,34.756,0.042
137.929,0,-0.155,-0.056,-0.023,-0.039,-0.069,-0.091,-0.076,-0.038,-0.092,39.0824027,-75.8752502,1.533,-0.184,-0.077,0.821,11,0.079,0.043,-9.718,0.002,0.019,-0.026,-1694.000,782.000,-220.000,-0.997,0.081,-0.008,-0.000,1008.351,19.302,40.841,-0.013,1009.100,19.860,34.589,-0.108
142.929,0,-0.081,0.005,0.066,-0.106,-0.048,-0.034,-0.130,-0.100,-0.018,39.0823999,-75.8752511,2.806,-0.039,0.005,0.302,12,0.029,0.251,-9.790,0.028,0.111,-0.113,-1718.000,754.000,-218.000,-0.999,0.033,-0.008,-0.008,1008.345,19.316,40.890,0.125,1009.050,19.880,35.006,0.509
147.929,0,-0.157,0.093,-0.231,0.114,0.179,-0.106,0.235,0.088,0.153,39.0823964,-75.8752522,4.157,-0.130,-0.018,0.383,11,0.424,-0.165,-9.955,0.000,-0.023,-0.198,-1408.000,690.000,100.000,-1.000,0.010,-0.010,0.004,1008.381,19.320,40.591,-0.145,1009.110,19.880,34.505,-0.209
152.929,0,-0.034,-0.002,0.090,-0.003,0.014,-0.295,-0.106,0.055,-0.099,39.0823946,-75.8752524,4.211,-0.049,-0.001,-0.046,13,0.115,0.057,-9.711,-0.049,0.111,0.032,-1645.000,827.000,-97.000,-1.000,0.008,-0.011,-0.006,1008.279,19.293,41.447,0.219,1009.100,19.900,34.589,-0.401
157.929,0,0.041,-0.016,-0.031,0.130,-0.124,-0.112,0.068,-0.041,-0.114,39.0823943,-75.8752517,3.919,0.003,0.024,-0.106,12,0.388,0.338,-9.682,0.015,-0.038,-0.055,-1651.000,802.000,-64.000,-1.000,-0.005,-0.017,-0.015,1008.264,19.296,41.568,0.062,1009.010,19.900,35.340,0.209
162.929,0,0.183,-0.054,-0.003,-0.050,-0.059,-0.225,-0.001,-0.026,-0.112,39.0823998,-75.8752512,1.960,0.199,-0.025,-0.279,13,0.072,0.108,-9.697,0.062,0.045,-0.066,-1434.000,628.000,184.000,-1.000,0.013,-0.004,-0.004,1008.224,19.318,41.905,0.010,1008.970,19.920,35.674,-0.025
167.929,0,-0.013,-0.081,-0.198,0.004,0.055,-0.011,-0.011,0.114,-0.020,39.0824010,-75.8752529,1.636,-0.008,-0.063,-0.021,13,0.079,0.079,-9.790,-0.068,-0.066,0.021,-1379.000,586.000,178.000,-1.000,0.018,-0.005,-0.010,1008.224,19.331,41.901,-0.025,1008.960,19.940,35.757,-0.017
172.929,0,0.055,-0.000,-0.342,-0.158,0.126,-0.210,-0.215,0.131,-0.109,39.0824035,-75.8752551,1.108,0.087,-0.022,-0.230,13,-0.057,0.093,-9.704,-0.111,0.109,-0.166,-1414.000,646.000,132.000,-1.000,0.004,-0.008,-0.012,1008.252,19.353,41.671,-0.379,1008.900,19.940,36.258,0.350
177.929,0,0.067,-0.018,-0.681,0.049,0.058,-0.034,0.010,0.045,-0.068,39.0824066,-75.8752560,0.244,0.038,-0.043,-0.220,13,0.165,0.079,-9.740,-0.036,-0.040,-0.038,-1419.000,662.000,202.000,-1.000,0.009,-0.008,-0.006,1008.284,19.361,41.400,-0.556,1009.120,19.950,34.422,-1.386
182.929,0,-0.036,0.003,0.042,0.019,0.072,-0.211,0.103,0.002,-0.158,39.0824070,-75.8752582,-0.419,-0.026,-0.063,-0.160,13,0.338,0.093,-9.647,0.004,0.009,0.051,-1371.000,662.000,217.000,-1.000,0.020,-0.012,-0.005,1008.282,19.377,41.417,0.013,1008.980,19.970,35.591,0.142
187.929,0,-0.729,-0.618,-0.194,-0.035,-0.048,-0.215,0.060,0.102,-0.138,39.0824037,-75.8752676,-2.090,-0.699,-0.613,-1.159,13,0.280,-0.043,-9.668,0.000,0.038,-0.043,-1383.000,596.000,118.000,-1.000,0.025,-0.012,-0.003,1008.346,19.386,40.881,-0.122,1009.100,19.990,34.589,-0.526
192.929,0,0.368,-0.025,-0.063,0.085,-0.035,-0.304,0.084,-0.089,-0.137,39.0824135,-75.8752919,-8.553,0.366,-0.039,-1.795,13,0.230,0.251,-9.668,0.060,-0.109,-0.013,-1390.000,607.000,204.000,-0.999,-0.034,-0.008,-0.008,1008.305,19.395,41.229,0.022,1009.040,20.000,35.090,-0.234
197.929,0,0.098,0.231,-0.218,-0.003,-0.093,-0.196,-0.154,-0.061,-0.030,39.0824188,-75.8752855,-13.423,0.002,0.256,-1.353,14,0.043,0.323,-9.776,0.023,0.047,-0.121,-1363.000,603.000,169.000,-0.999,-0.042,-0.011,-0.014,1008.326,19.465,41.056,-0.193,1009.100,20.000,34.589,-0.417
202.929,0,0.030,0.249,-0.127,-0.049,-0.128,-0.093,-0.019,-0.071,-0.052,39.0824183,-75.8752709,-18.944,0.062,0.286,-1.155,14,0.079,0.259,-9.754,-0.043,-0.081,0.019,-1419.000,624.000,182.000,-1.000,0.019,-0.005,-0.010,1008.337,19.472,40.964,-0.048,1009.070,20.020,34.839,-0.025
207.929,0,0.132,0.073,-0.021,-0.164,-0.028,-0.052,-0.147,-0.053,0.041,39.0824262,-75.8752678,-22.249,0.170,0.048,-0.725,14,-0.022,0.294,-9.848,-0.049,0.077,0.011,-1399.000,625.000,173.000,-1.000,0.026,-0.006,-0.012,1008.304,19.484,41.233,0.065,1009.040,20.040,35.090,-0.083
212.929,0,0.123,0.150,0.020,0.033,-0.253,-0.005,0.052,-0.366,-0.050,39.0824307,-75.8752644,-24.509,0.152,0.128,-0.807,14,0.273,0.675,-9.740,0.053,-0.026,-0.064,-1410.000,629.000,226.000,-1.000,-0.013,-0.012,-0.016,1008.348,19.496,40.865,0.045,1009.060,20.040,34.923,-0.142
217.929,0,-0.115,-0.058,0.021,0.011,-0.022,-0.102,0.033,0.030,-0.085,39.0824300,-75.8752657,-25.173,-0.101,-0.041,-0.151,14,0.345,0.115,-9.718,-0.096,0.064,0.134,-1386.000,620.000,166.000,-0.996,-0.088,-0.016,-0.006,1008.338,19.450,40.954,0.077,1009.050,20.050,35.006,0.109
222.929,0,0.061,0.030,0.024,-0.046,0.008,-0.222,-0.052,-0.048,-0.145,39.0824282,-75.8752657,-25.352,0.067,0.011,-0.098,14,0.165,0.223,-9.661,0.004,0.026,-0.098,-1387.000,655.000,137.000,-0.995,-0.095,-0.013,-0.008,1008.321,19.477,41.091,0.121,1009.040,20.070,35.090,0.526
227.929,0,-0.003,0.064,-0.087,0.030,0.038,-0.108,0.081,-0.033,-0.060,39.0824281,-75.8752646,-25.446,-0.020,0.028,-0.006,15,0.187,0.151,-9.747,0.068,-0.134,0.077,-1407.000,622.000,211.000,-0.988,-0.155,-0.007,-0.004,1008.350,19.475,40.853,-0.056,1009.110,20.070,34.505,-0.392
232.929,0,0.062,0.029,-0.111,0.140,0.035,-0.131,0.074,0.064,-0.088,39.0824259,-75.8752635,-25.615,-0.028,0.024,-0.045,15,0.259,0.136,-9.718,-0.083,-0.006,-0.055,-1388.000,611.000,128.000,-0.992,-0.128,-0.010,-0.008,1008.353,19.477,40.828,-0.118,1009.090,20.080,34.672,-0.067
237.929,0,-0.182,0.019,-0.048,0.078,-0.121,-0.122,0.085,-0.088,-0.098,39.0824190,-75.8752604,-25.069,-0.170,0.054,0.118,15,0.330,0.237,-9.704,0.011,0.115,0.089,-1379.000,652.000,205.000,-0.991,-0.137,-0.015,-0.005,1008.309,19.498,41.197,0.101,1009.090,20.100,34.672,-0.326
242.929,0,-0.080,0.008,0.078,-0.024,0.017,-0.143,0.005,0.025,-0.088,39.0824192,-75.8752602,-24.985,-0.063,0.012,0.028,15,0.172,0.187,-9.718,-0.040,-0.055,0.040,-1432.000,633.000,168.000,-0.990,-0.143,-0.010,-0.009,1008.320,19.514,41.105,0.148,1009.020,20.100,35.256,0.417
247.929,0,0.012,0.019,0.167,-0.003,-0.026,-0.096,-0.033,0.018,-0.076,39.0824186,-75.8752601,-24.874,0.000,0.020,-0.090,15,0.151,0.093,-9.733,0.026,0.055,0.166,-1416.000,688.000,130.000,-0.980,-0.199,-0.010,-0.004,1008.319,19.519,41.108,0.200,1009.190,20.110,33.837,-0.960
252.929,0,-0.007,0.055,0.230,0.051,0.087,0.025,0.073,0.091,-0.009,39.0824204,-75.8752596,-25.536,0.017,0.020,-0.167,15,0.266,0.079,-9.797,-0.032,-0.064,-0.072,-1418.000,673.000,201.000,-0.981,-0.195,-0.010,-0.005,1008.318,19.546,41.122,0.301,1009.040,20.110,35.090,0.159
257.929,0,-0.128,0.012,-0.203,-0.043,0.047,-0.152,-0.010,0.052,-0.104,39.0824182,-75.8752590,-25.711,-0.105,0.014,0.046,14,0.180,0.108,-9.704,-0.045,-0.036,-0.141,-1402.000,604.000,104.000,-0.991,-0.132,-0.010,-0.007,1008.348,19.558,40.871,-0.084,1009.070,20.140,34.839,-0.008
262.929,0,-0.281,0.119,0.006,0.030,0.120,-0.086,0.024,0.053,-0.046,39.0824118,-75.8752573,-25.132,-0.250,0.057,0.302,14,0.180,0.151,-9.762,-0.079,-0.077,0.036,-1380.000,590.000,141.000,-0.997,-0.080,-0.008,-0.010,1008.333,19.554,40.991,0.172,1009.110,20.140,34.505,-0.317
267.929,0,-0.015,0.078,-0.240,0.031,0.089,-0.189,0.060,0.098,-0.127,39.0824082,-75.8752559,-24.329,-0.018,0.063,0.132,15,0.151,0.072,-9.682,-0.087,-0.107,-0.121,-1451.000,582.000,124.000,-0.995,-0.101,-0.005,-0.008,1008.354,19.571,40.820,-0.202,1009.040,20.140,35.090,-0.142
272.929,0,0.011,0.134,0.011,0.109,0.152,-0.134,0.076,0.178,-0.111,39.0824055,-75.8752523,-23.926,-0.044,0.073,0.046,15,0.266,0.065,-9.697,-0.151,-0.094,-0.147,-1473.000,515.000,152.000,-0.996,-0.089,-0.009,-0.011,1008.306,19.581,41.223,0.138,1009.040,20.150,35.090,0.050
277.929,0,-0.028,0.032,-0.127,0.003,-0.080,0.005,0.024,-0.080,-0.051,39.0824053,-75.8752501,-23.882,-0.014,0.047,0.135,15,0.237,0.223,-9.754,0.126,0.026,-0.017,-1427.000,583.000,141.000,-0.994,-0.112,-0.013,-0.006,1008.311,19.586,41.179,-0.024,1009.030,20.170,35.173,0.133
282.929,0,-0.131,0.001,-0.207,-0.048,-0.041,-0.137,-0.004,-0.043,-0.088,39.0824034,-75.8752494,-23.223,-0.107,0.003,0.157,15,0.136,0.237,-9.718,-0.053,-0.013,-0.051,-1433.000,554.000,93.000,-0.983,-0.186,-0.010,-0.009,1008.330,19.610,41.017,-0.118,1009.050,20.180,35.006,0.150
287.929,0,-0.081,0.002,0.253,0.002,0.004,-0.112,0.001,0.027,-0.118,39.0824024,-75.8752498,-22.951,-0.046,-0.016,0.133,15,0.172,0.108,-9.690,-0.023,-0.051,-0.006,-1430.000,588.000,91.000,-0.987,-0.157,-0.009,-0.005,1008.281,19.619,41.428,0.201,1009.070,20.190,34.839,-0.367
292.929,0,0.117,-0.022,0.119,0.097,0.065,-0.133,0.070,0.069,-0.086,39.0824028,-75.8752512,-22.583,0.097,-0.048,0.060,15,0.345,0.014,-9.718,0.015,0.051,0.104,-1390.000,563.000,134.000,-0.979,-0.205,-0.013,0.000,1008.279,19.633,41.446,0.127,1008.990,20.190,35.507,0.359
297.929,0,0.049,-0.002,-0.085,-0.061,-0.012,-0.063,-0.050,0.021,-0.018,39.0824047,-75.8752508,-22.260,0.056,0.029,0.033,15,0.151,0.072,-9.790,-0.055,0.051,-0.030,-1413.000,538.000,75.000,-0.985,-0.172,-0.011,-0.004,1008.311,19.642,41.175,0.045,1009.070,20.200,34.839,-0.184
302.929,0,-0.111,0.014,-0.118,0.059,-0.016,-0.125,0.033,-0.034,-0.102,39.0823998,-75.8752501,-21.267,-0.154,0.010,0.360,15,0.244,0.108,-9.704,0.102,-0.004,0.038,-1396.000,552.000,148.000,-0.972,-0.234,-0.012,-0.000,1008.333,19.645,40.993,-0.100,1008.980,20.210,35.591,0.618
307.929,0,-0.036,-0.078,-0.587,-0.149,-0.034,-0.208,-0.093,-0.029,-0.075,39.0823993,-75.8752499,-20.434,0.038,-0.038,0.149,14,0.144,0.165,-9.733,-0.043,0.096,0.066,-1381.000,586.000,89.000,-0.982,-0.191,-0.014,-0.006,1008.318,19.649,41.121,-0.436,1008.960,20.220,35.757,0.050
312.929,0,-0.099,-0.002,-0.019,0.010,0.006,-0.095,0.051,-0.000,-0.167,39.0823974,-75.8752502,-19.330,-0.097,-0.007,0.486,15,0.208,0.180,-9.639,0.026,-0.081,-0.100,-1416.000,566.000,115.000,-0.982,-0.189,-0.010,-0.007,1008.266,19.662,41.552,0.086,1009.080,20.240,34.756,-0.735
317.929,0,0.073,0.106,-0.216,-0.042,0.120,-0.006,-0.016,0.050,0.016,39.0823992,-75.8752499,-18.686,0.068,0.022,0.087,15,0.065,0.022,-9.826,-0.064,-0.094,-0.124,-1422.000,548.000,70.000,-0.981,-0.194,-0.004,-0.003,1008.276,19.671,41.474,-0.056,1009.080,20.250,34.756,-0.852
322.929,0,0.138,-0.017,-0.133,0.023,0.001,-0.271,0.058,0.009,-0.129,39.0824023,-75.8752491,-18.931,0.179,-0.011,-0.165,14,0.273,0.187,-9.675,-0.098,-0.015,-0.164,-1427.000,569.000,52.000,-0.975,-0.222,-0.013,-0.006,1008.268,19.691,41.533,0.025,1008.990,20.250,35.507,0.075
327.929,0,0.018,0.095,-0.164,-0.011,-0.024,-0.142,0.044,-0.035,-0.031,39.0824062,-75.8752486,-19.509,0.034,0.085,-0.089,14,0.172,0.208,-9.776,0.043,-0.145,-0.009,-1426.000,590.000,118.000,-0.974,-0.225,-0.009,-0.006,1008.296,19.708,41.300,-0.092,1009.000,20.250,35.424,0.117
332.929,0,0.001,0.033,0.090,-0.021,-0.008,-0.047,-0.038,-0.029,-0.104,39.0824070,-75.8752467,-20.110,0.000,0.038,-0.142,15,0.101,0.158,-9.704,-0.032,-0.015,-0.036,-1445.000,559.000,129.000,-0.979,-0.205,-0.009,-0.006,1008.268,19.703,41.537,0.240,1009.080,20.260,34.756,-0.434
337.929,0,-0.010,0.008,0.224,-0.102,0.025,-0.049,-0.068,0.011,-0.024,39.0824075,-75.8752468,-20.585,0.001,0.002,-0.147,15,0.194,0.165,-9.783,-0.075,0.055,-0.064,-1385.000,561.000,87.000,-0.956,-0.293,-0.015,-0.007,1008.256,19.714,41.636,0.403,1008.970,20.270,35.674,0.351
342.929,0,-0.370,0.070,-0.119,0.000,-0.023,-0.165,-0.026,-0.042,-0.110,39.0824011,-75.8752457,-20.055,-0.364,0.066,0.388,15,0.187,0.172,-9.697,-0.030,0.121,0.047,-1413.000,545.000,136.000,-0.970,-0.242,-0.013,-0.005,1008.307,19.733,41.208,-0.038,1009.020,20.270,35.256,0.158
347.929,0,-0.393,0.008,0.016,-0.011,-0.007,-0.142,0.032,0.036,-0.117,39.0823900,-75.8752438,-18.529,-0.372,0.031,0.486,15,0.201,0.165,-9.690,-0.006,0.000,-0.107,-1422.000,585.000,91.000,-0.953,-0.301,-0.010,-0.006,1008.298,19.741,41.286,0.062,1008.930,20.290,36.008,0.860
352.929,0,-0.383,0.039,-0.187,0.029,-0.022,-0.158,0.009,-0.022,-0.103,39.0823781,-75.8752417,-16.662,-0.412,0.063,0.640,15,0.187,0.151,-9.704,0.000,0.034,-0.079,-1390.000,602.000,143.000,-0.955,-0.298,-0.011,-0.003,1008.287,19.750,41.378,-0.094,1009.040,20.300,35.090,-0.042
357.929,0,-0.096,0.056,0.045,-0.038,0.023,-0.033,-0.105,0.007,-0.069,39.0823726,-75.8752401,-15.538,-0.085,0.048,0.183,15,0.165,0.007,-9.740,-0.040,0.089,-0.013,-1406.000,611.000,96.000,-0.956,-0.292,-0.013,0.000,1008.295,19.744,41.315,0.149,1008.980,20.300,35.591,0.368
362.929,0,-0.032,0.014,-0.013,0.037,-0.035,-0.158,0.024,-0.015,-0.175,39.0823699,-75.8752384,-14.738,-0.048,0.042,0.214,15,0.201,0.144,-9.632,-0.034,0.028,-0.034,-1426.000,576.000,133.000,-0.966,-0.258,-0.011,-0.003,1008.311,19.745,41.181,0.073,1009.030,20.300,35.173,0.058
367.929,0,0.111,-0.008,0.101,0.005,-0.003,-0.026,-0.054,0.040,-0.084,39.0823699,-75.8752369,-14.598,0.063,0.008,-0.116,15,0.108,0.079,-9.726,-0.062,0.026,0.124,-1432.000,598.000,126.000,-0.950,-0.313,-0.009,-0.005,1008.253,19.752,41.664,0.169,1008.910,20.320,36.175,0.585
372.929,0,0.220,-0.040,-0.139,0.112,-0.033,-0.195,0.037,-0.063,-0.081,39.0823730,-75.8752376,-15.088,0.161,-0.042,-0.218,15,0.187,0.172,-9.726,0.038,-0.011,0.049,-1439.000,552.000,214.000,-0.943,-0.333,-0.011,-0.001,1008.303,19.778,41.244,-0.042,1009.080,20.320,34.756,-0.518
377.929,0,0.047,-0.016,-0.013,-0.094,-0.076,-0.028,-0.065,-0.087,-0.053,39.0823762,-75.8752385,-15.667,0.080,-0.008,-0.115,15,0.086,0.251,-9.754,-0.040,0.030,0.075,-1376.000,564.000,65.000,-0.961,-0.275,-0.012,-0.008,1008.264,19.789,41.569,0.038,1008.990,20.330,35.507,0.008
382.929,0,-0.066,-0.028,-0.089,-0.024,-0.107,-0.133,0.004,-0.118,-0.032,39.0823762,-75.8752385,-15.602,-0.054,0.002,0.094,15,0.158,0.158,-9.776,0.079,0.070,-0.030,-1428.000,563.000,139.000,-0.951,-0.308,-0.012,0.001,1008.284,19.790,41.404,-0.053,1009.040,20.330,35.090,-0.392
387.929,0,0.105,-0.078,-0.060,0.089,-0.075,-0.204,0.059,-0.027,-0.111,39.0823752,-75.8752389,-15.403,0.042,-0.016,-0.090,15,0.180,0.144,-9.697,0.075,-0.038,0.036,-1386.000,581.000,72.000,-0.959,-0.282,-0.008,-0.002,1008.287,19.809,41.379,-0.048,1008.910,20.330,36.175,0.894
392.929,0,-0.022,-0.029,0.352,0.014,-0.015,-0.014,0.063,-0.044,-0.030,39.0823752,-75.8752399,-15.670,-0.010,-0.031,-0.066,15,0.180,0.237,-9.776,0.030,-0.070,-0.055,-1408.000,593.000,101.000,-0.951,-0.308,-0.010,-0.006,1008.200,19.812,42.106,0.497,1008.960,20.350,35.757,0.300
397.929,0,0.049,-0.039,-0.017,0.140,-0.046,-0.307,0.075,-0.036,-0.181,39.0823746,-75.8752412,-15.550,-0.029,-0.016,0.177,15,0.215,0.187,-9.625,0.015,-0.098,0.083,-1388.000,587.000,129.000,-0.964,-0.266,-0.010,-0.004,1008.252,19.827,41.673,0.095,1008.940,20.350,35.925,0.334
402.929,0,-0.126,-0.098,-0.165,-0.001,-0.041,-0.099,0.015,-0.038,-0.032,39.0823717,-75.8752431,-14.793,-0.124,-0.073,0.192,15,0.072,0.172,-9.776,0.072,-0.040,-0.132,-1381.000,571.000,95.000,-0.964,-0.265,-0.006,-0.005,1008.294,19.825,41.318,-0.132,1009.020,20.360,35.256,-0.226
407.929,0,-0.117,0.007,-0.241,-0.022,-0.018,-0.076,0.007,-0.036,-0.040,39.0823701,-75.8752441,-14.466,-0.095,0.016,0.197,17,0.115,0.115,-9.769,-0.004,0.000,-0.030,-1438.000,549.000,126.000,-0.960,-0.280,-0.007,-0.002,1008.332,19.830,41.003,-0.194,1009.100,20.380,34.589,-0.442
412.929,0,0.320,-0.101,-0.147,0.014,0.030,-0.029,0.027,0.021,-0.039,39.0823760,-75.8752466,-15.112,0.313,-0.099,-0.385,17,0.172,0.136,-9.769,-0.002,-0.055,0.064,-1411.000,608.000,118.000,-0.961,-0.278,-0.009,-0.005,1008.315,19.845,41.144,-0.101,1009.040,20.390,35.090,-0.150
417.929,0,0.173,-0.066,-0.319,-0.028,0.072,-0.092,0.017,0.060,-0.054,39.0823829,-75.8752500,-16.047,0.209,-0.098,-0.279,17,0.165,0.093,-9.754,-0.023,-0.075,0.151,-1399.000,563.000,173.000,-0.963,-0.271,-0.008,-0.005,1008.347,19.863,40.879,-0.238,1009.060,20.390,34.923,-0.317
422.929,0,0.086,-0.047,-0.061,0.004,-0.113,-0.052,-0.007,-0.142,0.067,39.0823857,-75.8752521,-16.338,0.079,-0.035,-0.087,17,0.079,0.402,-9.869,-0.026,0.011,0.066,-1372.000,588.000,153.000,-0.959,-0.284,-0.012,-0.012,1008.330,19.860,41.022,0.003,1009.010,20.390,35.340,0.367
427.929,0,0.060,-0.002,0.014,-0.022,-0.012,-0.112,-0.008,-0.054,-0.103,39.0823876,-75.8752528,-16.695,0.059,-0.015,-0.110,16,0.201,0.122,-9.704,0.064,0.109,-0.055,-1376.000,582.000,145.000,-0.949,-0.316,-0.013,-0.000,1008.326,19.864,41.049,0.125,1009.010,20.400,35.340,0.426
432.929,0,-0.313,0.133,-0.055,-0.091,0.092,-0.103,-0.078,0.066,-0.020,39.0823812,-75.8752505,-15.994,-0.261,0.091,0.362,17,0.086,-0.022,-9.790,-0.072,-0.013,0.153,-1404.000,601.000,122.000,-0.942,-0.336,-0.006,-0.002,1008.329,19.874,41.024,0.023,1009.130,20.420,34.338,-0.618
437.929,0,-0.097,0.099,0.109,-0.109,0.029,-0.039,-0.037,0.010,-0.076,39.0823786,-75.8752460,-14.880,-0.022,0.058,0.151,15,0.172,0.036,-9.733,-0.021,-0.013,-0.121,-1342.000,586.000,93.000,-0.945,-0.327,-0.011,0.000,1008.312,19.881,41.165,0.172,1009.070,20.410,34.839,-0.225
442.929,0,0.011,0.031,-0.333,-0.049,0.037,-0.147,-0.034,0.025,-0.089,39.0823790,-75.8752450,-14.567,0.048,-0.003,0.100,15,0.208,0.115,-9.718,-0.034,-0.038,0.134,-1373.000,542.000,84.000,-0.934,-0.356,-0.013,-0.004,1008.345,19.889,40.894,-0.222,1009.030,20.430,35.173,0.100
447.929,0,0.096,0.020,-0.023,-0.001,0.031,-0.249,-0.032,0.006,-0.133,39.0823813,-75.8752444,-14.028,0.074,0.008,0.112,16,0.172,0.050,-9.675,0.038,0.028,0.062,-1354.000,545.000,111.000,-0.927,-0.376,-0.011,0.000,1008.329,19.892,41.024,0.035,1009.060,20.420,34.923,-0.159
452.929,0,-0.028,-0.006,-0.013,0.011,0.009,-0.187,0.026,0.006,-0.158,39.0823833,-75.8752439,-13.732,-0.008,0.010,0.060,16,0.259,0.172,-9.647,-0.026,0.055,-0.153,-1414.000,582.000,120.000,-0.916,-0.401,-0.015,-0.003,1008.306,19.903,41.216,0.046,1009.010,20.430,35.340,0.217
457.929,0,0.129,0.007,-0.100,0.043,0.073,-0.113,0.021,0.098,-0.094,39.0823851,-75.8752441,-13.887,0.118,-0.027,-0.008,17,0.294,0.122,-9.711,-0.021,-0.049,0.036,-1377.000,533.000,120.000,-0.895,-0.447,-0.013,-0.003,1008.337,19.904,40.958,-0.056,1008.990,20.430,35.507,0.401
462.929,0,0.270,-0.169,-0.410,-0.022,0.033,-0.122,-0.047,0.029,-0.025,39.0823908,-75.8752517,-14.499,0.262,-0.192,-0.226,17,0.136,0.122,-9.783,-0.030,-0.002,-0.166,-1455.000,532.000,114.000,-0.898,-0.440,-0.011,-0.005,1008.340,19.921,40.935,-0.335,1009.070,20.440,34.839,-0.434
467.929,0,0.197,-0.046,-0.174,0.048,0.082,-0.109,-0.024,0.070,-0.033,39.0823965,-75.8752570,-15.099,0.139,-0.095,-0.144,17,0.136,0.036,-9.776,-0.026,-0.087,-0.034,-1392.000,561.000,68.000,-0.887,-0.461,-0.006,-0.002,1008.343,19.920,40.913,-0.135,1009.030,20.450,35.173,0.158
472.929,0,-0.009,-0.009,-0.192,-0.082,0.022,-0.136,-0.050,-0.041,-0.095,39.0823994,-75.8752595,-15.019,0.030,-0.062,0.063,17,0.215,0.158,-9.711,-0.019,0.083,0.083,-1372.000,555.000,46.000,-0.876,-0.482,-0.017,-0.001,1008.339,19.953,40.945,-0.074,1009.120,20.450,34.422,-0.468
477.929,0,0.080,-0.008,0.092,0.053,0.030,-0.180,0.049,0.065,-0.175,39.0824006,-75.8752593,-15.199,0.061,0.027,-0.125,17,0.259,0.050,-9.632,0.053,-0.109,-0.170,-1417.000,579.000,120.000,-0.868,-0.497,-0.009,0.003,1008.248,19.932,41.702,0.086,1008.970,20.460,35.674,0.042
482.929,0,0.098,-0.077,-0.342,-0.012,-0.027,-0.100,-0.018,-0.031,-0.094,39.0824027,-75.8752606,-15.880,0.079,-0.054,-0.180,17,0.266,0.151,-9.711,-0.053,0.030,0.032,-1408.000,532.000,99.000,-0.881,-0.472,-0.017,0.001,1008.300,19.953,41.271,-0.212,1008.960,20.460,35.757,0.284
487.929,0,0.098,-0.045,0.351,-0.004,-0.017,-0.064,-0.020,-0.041,-0.125,39.0824054,-75.8752622,-16.310,0.080,-0.035,-0.117,17,0.180,0.122,-9.682,0.023,0.092,-0.064,-1400.000,516.000,84.000,-0.850,-0.526,-0.013,0.001,1008.281,19.958,41.429,0.421,1009.030,20.480,35.173,0.050
492.929,0,0.063,0.039,-0.028,-0.088,0.008,-0.104,-0.060,-0.017,-0.077,39.0824082,-75.8752618,-16.760,0.100,0.043,-0.126,17,0.101,0.079,-9.733,-0.045,0.009,0.092,-1387.000,582.000,29.000,-0.874,-0.485,-0.010,-0.002,1008.326,19.967,41.056,0.084,1009.030,20.480,35.173,0.125
497.929,0,0.094,0.007,-0.241,0.015,0.029,-0.103,-0.005,-0.003,-0.061,39.0824093,-75.8752618,-16.814,0.067,-0.019,-0.047,17,0.165,0.108,-9.747,0.009,0.009,-0.015,-1390.000,567.000,30.000,-0.901,-0.435,-0.010,-0.001,1008.254,19.967,41.653,-0.153,1008.990,20.490,35.507,-0.234
502.929,0,-0.028,-0.032,-0.227,0.034,-0.012,-0.187,0.001,-0.027,-0.103,39.0824090,-75.8752633,-17.156,-0.048,-0.042,-0.119,17,0.151,0.172,-9.704,0.094,-0.034,-0.119,-1372.000,564.000,142.000,-0.925,-0.381,-0.011,-0.004,1008.329,19.990,41.028,-0.148,1009.040,20.490,35.090,0.175
507.929,0,-0.055,0.009,-0.272,0.040,0.010,-0.109,0.038,0.012,-0.052,39.0824077,-75.8752628,-17.246,-0.050,0.027,0.060,17,0.201,0.165,-9.754,-0.023,-0.038,-0.026,-1422.000,520.000,93.000,-0.896,-0.443,-0.011,-0.003,1008.342,19.981,40.918,-0.215,1009.050,20.500,35.006,-0.008
512.929,0,-0.042,-0.047,-0.163,-0.035,0.001,-0.171,-0.035,-0.033,-0.118,39.0824056,-75.8752641,-17.377,-0.042,-0.050,-0.094,18,0.172,0.151,-9.690,-0.013,0.111,-0.098,-1410.000,558.000,38.000,-0.870,-0.493,-0.014,-0.002,1008.332,19.990,41.004,-0.070,1009.000,20.510,35.424,0.284
517.929,0,0.063,0.016,-0.099,0.094,-0.046,-0.154,0.064,-0.043,-0.060,39.0824053,-75.8752634,-17.615,-0.016,0.055,-0.024,18,0.172,0.194,-9.747,0.030,0.017,-0.002,-1336.000,539.000,26.000,-0.880,-0.476,-0.011,-0.001,1008.345,19.994,40.892,-0.057,1009.040,20.510,35.090,-0.117
522.929,0,-0.053,-0.002,-0.202,-0.048,-0.022,-0.218,0.023,-0.042,-0.133,39.0824049,-75.8752627,-17.710,-0.017,-0.008,-0.055,18,0.086,0.144,-9.675,0.066,-0.026,-0.077,-1376.000,538.000,43.000,-0.877,-0.481,-0.007,-0.002,1008.350,20.007,40.849,-0.095,1009.100,20.510,34.589,-0.609
527.929,0,-0.006,0.021,0.035,0.076,0.018,-0.006,0.040,-0.010,0.033,39.0824028,-75.8752627,-17.660,-0.053,0.013,0.041,18,0.194,0.115,-9.841,0.000,0.028,0.062,-1412.000,560.000,17.000,-0.867,-0.498,-0.010,0.001,1008.324,20.012,41.069,0.066,1009.050,20.520,35.006,0.025
532.929,0,0.080,0.044,-0.181,0.060,-0.025,-0.159,0.012,-0.006,-0.118,39.0824028,-75.8752610,-17.705,0.031,0.055,-0.098,18,0.151,0.165,-9.690,0.066,-0.036,-0.096,-1416.000,533.000,56.000,-0.842,-0.539,-0.011,-0.002,1008.309,20.007,41.198,-0.088,1009.030,20.530,35.173,0.041
537.929,0,0.046,0.061,-0.312,0.004,0.058,-0.123,0.011,0.067,-0.060,39.0824045,-75.8752588,-17.994,0.040,0.033,-0.029,18,0.223,0.115,-9.747,-0.066,-0.087,-0.028,-1380.000,583.000,70.000,-0.845,-0.535,-0.010,-0.001,1008.351,20.021,40.843,-0.232,1009.100,20.540,34.589,-0.275
542.929,0,-0.051,-0.010,0.221,-0.055,0.003,-0.020,-0.025,-0.007,-0.155,39.0824045,-75.8752584,-18.064,-0.007,0.000,-0.041,18,0.086,0.115,-9.654,0.009,-0.011,-0.028,-1397.000,507.000,45.000,-0.864,-0.503,-0.008,-0.003,1008.290,20.037,41.357,0.388,1009.020,20.540,35.256,0.359
547.929,0,0.009,0.057,-0.163,-0.018,0.007,-0.154,-0.035,-0.066,-0.134,39.0824047,-75.8752584,-18.222,-0.004,-0.001,-0.047,18,0.129,0.072,-9.675,0.017,0.115,-0.043,-1430.000,548.000,58.000,-0.852,-0.524,-0.011,0.002,1008.332,20.035,41.002,-0.037,1009.040,20.540,35.090,0.109
552.929,0,0.005,-0.012,0.356,0.038,-0.024,-0.059,0.055,-0.024,-0.059,39.0824055,-75.8752588,-18.687,0.007,-0.023,-0.138,18,0.251,0.129,-9.747,0.032,0.055,-0.028,-1418.000,515.000,81.000,-0.825,-0.565,-0.013,0.004,1008.330,20.042,41.018,0.245,1009.030,20.550,35.173,0.426
557.929,0,0.141,0.043,-0.224,0.048,-0.010,-0.075,0.032,-0.022,-0.032,39.0824083,-75.8752579,-19.402,0.101,0.044,-0.227,17,0.180,0.136,-9.776,0.064,-0.004,-0.181,-1378.000,512.000,-2.000,-0.839,-0.543,-0.011,0.001,1008.347,20.046,40.875,-0.150,1009.070,20.550,34.839,-0.092
562.929,0,-0.135,0.046,0.346,-0.109,0.118,-0.013,-0.084,0.121,-0.043,39.0824070,-75.8752573,-19.641,-0.078,-0.012,-0.060,17,0.338,-0.101,-9.762,-0.026,0.026,0.023,-1355.000,551.000,100.000,-0.821,-0.571,-0.011,0.007,1008.277,20.058,41.462,0.443,1009.040,20.570,35.090,0.209
567.929,0,-0.098,0.020,0.372,-0.014,-0.014,-0.152,-0.015,-0.047,-0.124,39.0824038,-75.8752577,-19.604,-0.100,-0.005,0.030,18,0.180,0.215,-9.682,-0.055,0.045,0.081,-1415.000,554.000,-4.000,-0.843,-0.538,-0.016,-0.003,1008.304,20.066,41.237,0.370,1009.020,20.560,35.256,0.192
572.929,0,-0.060,0.016,0.153,-0.046,0.038,-0.214,-0.055,0.017,-0.140,39.0824019,-75.8752581,-19.727,-0.044,-0.002,-0.040,18,0.215,-0.014,-9.668,0.009,-0.045,0.047,-1410.000,528.000,51.000,-0.863,-0.505,-0.011,0.004,1008.285,20.071,41.396,0.178,1009.020,20.570,35.256,0.133
577.929,0,-0.059,0.041,-0.213,-0.056,0.035,-0.216,-0.082,0.045,-0.140,39.0824003,-75.8752570,-19.571,-0.058,0.048,0.038,18,0.180,0.122,-9.668,-0.170,-0.015,0.004,-1379.000,530.000,-21.000,-0.856,-0.517,-0.014,-0.005,1008.317,20.073,41.131,-0.094,1008.980,20.570,35.591,0.443
582.929,0,-0.007,0.022,-0.026,-0.083,-0.017,-0.110,-0.067,0.002,-0.039,39.0824002,-75.8752549,-19.581,0.039,0.042,-0.029,18,0.187,0.136,-9.769,-0.058,0.021,0.058,-1418.000,542.000,23.000,-0.873,-0.487,-0.015,-0.003,1008.329,20.089,41.030,0.040,1009.070,20.590,34.839,-0.192
587.929,0,-0.048,0.023,-0.097,0.005,-0.029,-0.094,0.044,-0.036,-0.031,39.0824006,-75.8752539,-19.351,-0.018,0.035,0.100,18,0.201,0.172,-9.776,0.094,0.009,0.043,-1443.000,549.000,124.000,-0.852,-0.524,-0.012,0.001,1008.342,20.087,40.915,-0.051,1009.100,20.590,34.589,-0.567
592.929,0,-0.070,0.030,-0.053,-0.056,-0.036,-0.078,-0.006,-0.068,-0.069,39.0824005,-75.8752535,-19.069,-0.020,0.015,0.095,17,0.093,0.108,-9.740,0.072,0.036,0.019,-1422.000,521.000,62.000,-0.858,-0.514,-0.009,0.001,1008.308,20.094,41.203,-0.002,1008.990,20.600,35.507,0.200
597.929,0,-0.040,-0.035,-0.222,-0.019,-0.076,-0.108,0.004,-0.057,0.039,39.0823992,-75.8752533,-18.784,-0.039,-0.001,0.073,16,0.093,0.151,-9.848,0.030,0.023,-0.092,-1409.000,483.000,95.000,-0.803,-0.596,-0.010,-0.001,1008.341,20.104,40.930,-0.177,1009.060,20.600,34.923,-0.159
602.929,0,0.057,0.021,0.099,0.080,0.040,-0.071,0.021,0.026,-0.116,39.0823989,-75.8752531,-18.700,-0.012,0.016,-0.016,17,0.266,0.144,-9.690,-0.049,0.032,0.190,-1412.000,543.000,65.000,-0.791,-0.612,-0.014,0.002,1008.267,20.105,41.543,0.304,1009.010,20.610,35.340,0.017
607.929,0,-0.061,0.064,0.022,-0.030,0.044,-0.063,-0.036,-0.003,-0.040,39.0823972,-75.8752520,-18.542,-0.061,0.019,0.065,17,0.115,0.101,-9.769,-0.070,-0.051,0.011,-1384.000,571.000,54.000,-0.786,-0.619,-0.009,-0.001,1008.287,20.109,41.377,0.100,1009.000,20.610,35.424,0.159
612.929,0,-0.063,0.044,-0.147,0.019,0.061,-0.092,0.014,-0.027,-0.097,39.0823951,-75.8752521,-18.308,-0.084,-0.019,0.089,18,0.158,0.115,-9.711,0.062,0.015,0.053,-1408.000,538.000,12.000,-0.784,-0.621,-0.010,0.002,1008.302,20.118,41.251,0.004,1009.000,20.620,35.424,0.225
617.929,0,0.087,0.116,-0.026,0.057,0.129,-0.082,0.019,0.050,-0.039,39.0823948,-75.8752518,-18.278,0.048,0.023,-0.037,18,0.194,0.072,-9.769,-0.004,-0.030,0.126,-1389.000,525.000,89.000,-0.791,-0.612,-0.008,0.002,1008.341,20.179,40.925,0.022,1009.070,20.610,34.839,-0.276
622.929,0,0.066,-0.036,0.171,0.052,0.044,-0.075,0.028,0.095,-0.085,39.0823965,-75.8752519,-18.336,0.075,-0.017,-0.031,17,0.345,0.158,-9.718,-0.070,-0.023,-0.038,-1363.000,526.000,49.000,-0.787,-0.616,-0.015,0.002,1008.331,20.189,41.009,0.148,1009.040,20.630,35.090,0.159
627.929,0,-0.048,-0.065,0.018,-0.039,-0.133,-0.003,-0.027,-0.144,-0.006,39.0823969,-75.8752525,-18.586,-0.007,-0.020,-0.117,18,0.000,0.122,-9.805,0.043,0.087,-0.034,-1381.000,529.000,44.000,-0.775,-0.632,-0.010,-0.000,1008.319,20.183,41.115,0.074,1009.100,20.630,34.589,-0.526
632.929,0,0.100,-0.026,0.139,0.087,-0.091,-0.012,0.119,-0.044,-0.073,39.0823994,-75.8752532,-18.819,0.083,0.009,-0.001,17,0.194,0.237,-9.733,0.047,0.072,0.100,-1352.000,522.000,107.000,-0.787,-0.616,-0.012,0.002,1008.281,20.203,41.430,0.259,1008.950,20.630,35.841,0.509
637.929,0,0.035,0.080,-0.090,-0.031,0.036,-0.197,-0.074,-0.012,-0.110,39.0823999,-75.8752522,-19.032,0.010,0.040,-0.087,17,0.244,0.036,-9.697,0.017,0.126,0.015,-1375.000,538.000,57.000,-0.779,-0.626,-0.014,0.005,1008.322,20.205,41.087,-0.084,1008.980,20.640,35.591,0.384
642.929,0,-0.032,-0.014,-0.198,-0.071,-0.003,-0.203,-0.044,0.055,-0.082,39.0823990,-75.8752519,-19.089,0.009,0.009,-0.021,17,0.237,0.065,-9.726,-0.021,-0.011,-0.060,-1369.000,542.000,44.000,-0.765,-0.644,-0.011,0.002,1008.335,20.219,40.981,-0.144,1009.040,20.660,35.090,0.075
647.929,0,0.103,-0.023,0.108,0.027,0.016,-0.044,0.016,0.017,0.063,39.0824001,-75.8752531,-19.304,0.085,-0.036,-0.069,17,0.251,0.144,-9.869,0.036,-0.040,0.013,-1383.000,520.000,-60.000,-0.782,-0.624,-0.013,0.002,1008.324,20.230,41.071,0.044,1008.970,20.660,35.674,0.484
652.929,0,0.106,-0.024,-0.374,0.055,-0.032,-0.100,0.035,-0.013,-0.066,39.0824026,-75.8752537,-19.514,0.082,-0.004,-0.011,18,0.230,0.172,-9.740,-0.032,0.068,0.038,-1401.000,557.000,44.000,-0.783,-0.622,-0.014,0.002,1008.327,20.252,41.044,-0.276,1008.990,20.660,35.507,-0.008
657.929,0,-0.059,-0.098,-0.154,-0.029,-0.076,-0.048,0.015,0.037,-0.118,39.0824044,-75.8752538,-19.684,-0.022,-0.017,-0.038,18,0.165,0.115,-9.690,-0.009,-0.034,-0.062,-1401.000,509.000,-24.000,-0.792,-0.610,-0.009,-0.001,1008.299,20.247,41.274,-0.043,1008.980,20.660,35.591,-0.067
662.929,0,-0.067,0.010,-0.011,0.048,0.020,-0.052,0.049,0.005,-0.067,39.0824023,-75.8752547,-19.945,-0.072,-0.019,-0.013,18,0.122,0.208,-9.740,0.060,-0.143,0.064,-1369.000,570.000,71.000,-0.821,-0.571,-0.009,-0.004,1008.330,20.254,41.019,0.037,1009.030,20.670,35.173,0.058
667.929,0,-0.076,0.029,-0.081,-0.030,0.076,-0.125,-0.037,0.042,-0.052,39.0823986,-75.8752552,-20.017,-0.057,-0.005,0.021,18,0.244,0.115,-9.754,-0.092,0.013,-0.138,-1381.000,565.000,54.000,-0.830,-0.557,-0.014,-0.001,1008.324,20.206,41.071,0.036,1009.030,20.670,35.173,0.125
672.929,0,0.014,-0.030,-0.395,0.041,-0.005,-0.077,0.043,-0.013,-0.059,39.0823975,-75.8752555,-20.070,-0.009,-0.034,-0.017,18,0.165,0.201,-9.747,0.043,-0.066,0.058,-1403.000,499.000,77.000,-0.813,-0.583,-0.011,-0.002,1008.350,20.207,40.852,-0.300,1009.060,20.680,34.923,-0.242
677.929,0,0.059,-0.001,-0.106,0.035,0.003,-0.267,0.058,-0.024,-0.161,39.0824004,-75.8752568,-20.385,0.090,-0.021,-0.067,18,0.129,0.180,-9.647,0.064,0.058,-0.100,-1362.000,537.000,47.000,-0.809,-0.588,-0.009,-0.001,1008.329,20.218,41.029,-0.017,1009.000,20.680,35.424,0.200
682.929,0,0.078,-0.056,0.036,-0.044,-0.060,-0.079,-0.020,-0.063,-0.098,39.0824047,-75.8752579,-20.483,0.100,-0.021,-0.047,17,0.122,0.079,-9.711,0.075,0.017,-0.119,-1362.000,528.000,13.000,-0.800,-0.601,-0.010,0.003,1008.346,20.222,40.885,0.137,1009.090,20.690,34.672,-0.151
687.929,0,-0.023,0.042,-0.275,-0.039,0.026,-0.187,-0.016,0.024,-0.163,39.0824054,-75.8752578,-20.489,-0.001,0.012,0.016,18,0.093,0.043,-9.647,-0.032,-0.124,-0.098,-1387.000,514.000,74.000,-0.795,-0.606,-0.005,-0.000,1008.360,20.224,40.766,-0.164,1009.110,20.690,34.505,-0.401
692.929,0,-0.034,-0.014,0.093,-0.015,-0.002,-0.216,0.021,-0.021,-0.134,39.0824047,-75.8752581,-20.861,-0.030,-0.012,-0.104,18,0.115,0.036,-9.675,0.051,-0.058,-0.017,-1400.000,510.000,95.000,-0.786,-0.618,-0.006,0.004,1008.350,20.231,40.854,0.142,1009.090,20.690,34.672,0.042
697.929,0,0.079,-0.064,-0.371,0.024,-0.006,-0.147,-0.050,-0.013,-0.074,39.0824059,-75.8752601,-20.849,0.062,-0.054,-0.015,18,0.208,0.115,-9.733,-0.028,0.019,-0.011,-1392.000,585.000,71.000,-0.797,-0.604,-0.015,0.001,1008.339,20.244,40.943,-0.268,1009.110,20.700,34.505,-0.768
702.929,0,-0.000,-0.053,-0.131,-0.054,-0.042,-0.120,-0.037,-0.025,-0.083,39.0824067,-75.8752613,-21.180,0.026,-0.022,-0.105,18,0.129,0.136,-9.726,-0.045,0.006,-0.111,-1421.000,573.000,64.000,-0.776,-0.631,-0.012,-0.001,1008.335,20.231,40.978,-0.009,1009.060,20.700,34.923,-0.217
707.929,0,0.038,-0.024,-0.079,0.030,0.029,-0.106,0.015,0.011,-0.083,39.0824082,-75.8752630,-21.369,0.011,-0.040,-0.044,18,0.180,0.072,-9.726,0.028,-0.021,0.015,-1401.000,543.000,48.000,-0.768,-0.640,-0.009,0.003,1008.380,20.240,40.597,0.028,1009.120,20.730,34.422,-0.300
712.929,0,0.081,0.021,0.030,0.070,0.032,-0.228,0.009,0.017,-0.125,39.0824107,-75.8752632,-21.440,0.032,0.007,0.007,18,0.172,0.108,-9.682,-0.064,0.006,0.079,-1395.000,547.000,74.000,-0.774,-0.633,-0.010,0.001,1008.362,20.263,40.754,0.107,1009.050,20.730,35.006,0.234
717.929,0,0.029,-0.005,-0.076,0.004,0.013,-0.091,0.040,0.037,-0.060,39.0824121,-75.8752636,-21.695,0.061,-0.001,-0.075,18,0.172,0.158,-9.747,0.023,-0.075,0.085,-1356.000,515.000,107.000,-0.754,-0.657,-0.009,-0.000,1008.355,20.262,40.809,0.011,1009.080,20.720,34.756,-0.309
722.929,0,0.064,0.018,-0.010,0.026,0.068,-0.112,0.060,0.012,-0.048,39.0824149,-75.8752634,-21.385,0.083,-0.009,0.119,18,0.057,0.129,-9.762,0.072,-0.128,-0.051,-1374.000,541.000,127.000,-0.767,-0.641,-0.004,-0.002,1008.376,20.271,40.631,0.002,1009.040,20.720,35.090,0.468
727.929,0,-0.004,0.047,-0.162,0.003,0.050,-0.147,0.016,0.031,-0.101,39.0824144,-75.8752634,-21.402,-0.011,0.005,-0.023,18,0.280,0.115,-9.704,-0.040,-0.009,0.049,-1363.000,532.000,32.000,-0.774,-0.633,-0.013,0.004,1008.367,20.280,40.708,-0.072,1009.090,20.740,34.672,-0.234
732.929,0,0.088,0.073,-0.049,0.000,0.082,-0.092,-0.016,0.036,-0.068,39.0824153,-75.8752625,-21.303,0.074,0.021,0.093,18,0.180,0.101,-9.740,0.006,-0.045,-0.181,-1446.000,527.000,83.000,-0.780,-0.626,-0.010,-0.000,1008.389,20.280,40.529,-0.015,1009.110,20.730,34.505,-0.042
737.929,0,0.152,-0.012,-0.185,0.037,0.019,-0.101,0.047,0.009,-0.060,39.0824184,-75.8752631,-20.581,0.124,-0.031,0.186,17,0.180,0.172,-9.747,0.028,-0.040,-0.060,-1405.000,532.000,59.000,-0.771,-0.637,-0.011,0.000,1008.383,20.281,40.575,-0.107,1009.140,20.750,34.255,-0.493
742.929,0,0.073,-0.057,0.211,0.101,-0.041,-0.159,0.045,-0.055,-0.028,39.0824193,-75.8752648,-20.354,0.000,-0.052,0.051,18,0.237,0.266,-9.776,0.013,0.104,-0.064,-1447.000,549.000,54.000,-0.768,-0.640,-0.018,0.001,1008.343,20.299,40.907,0.261,1009.060,20.740,34.923,0.292
747.929,0,0.006,-0.074,-0.604,0.138,0.000,-0.161,0.113,0.002,-0.115,39.0824191,-75.8752669,-19.749,-0.030,-0.044,0.171,17,0.237,0.259,-9.690,0.038,0.036,-0.004,-1425.000,529.000,47.000,-0.751,-0.660,-0.014,0.002,1008.391,20.302,40.510,-0.509,1009.070,20.750,34.839,-0.167
752.929,0,-0.180,-0.033,-0.185,-0.034,-0.039,-0.009,0.020,-0.075,-0.009,39.0824169,-75.8752681,-19.656,-0.132,-0.032,0.037,17,0.158,0.237,-9.797,-0.017,0.100,0.115,-1366.000,490.000,108.000,-0.774,-0.633,-0.016,-0.001,1008.394,20.302,40.486,-0.130,1009.080,20.760,34.756,0.117
757.929,0,-0.026,0.031,0.376,0.007,0.110,-0.036,0.056,0.100,-0.060,39.0824158,-75.8752690,-19.945,0.019,-0.016,-0.097,18,0.223,0.165,-9.747,0.011,-0.119,-0.009,-1402.000,568.000,70.000,-0.763,-0.647,-0.009,-0.001,1008.310,20.301,41.186,0.556,1008.980,20.750,35.591,0.827
762.929,0,0.068,-0.019,-0.124,-0.037,0.041,-0.045,-0.050,0.041,-0.050,39.0824172,-75.8752697,-20.062,0.083,-0.008,-0.016,17,0.215,0.244,-9.754,-0.083,-0.015,-0.102,-1410.000,560.000,63.000,-0.740,-0.673,-0.017,-0.005,1008.340,20.321,40.935,-0.050,1009.090,20.770,34.672,-0.434
767.929,0,-0.010,0.023,-0.276,-0.062,-0.003,-0.141,-0.044,0.002,-0.105,39.0824181,-75.8752700,-19.957,-0.001,-0.005,0.055,18,0.136,0.072,-9.704,-0.017,-0.021,0.019,-1399.000,500.000,86.000,-0.731,-0.683,-0.009,0.000,1008.374,20.327,40.650,-0.210,1009.040,20.770,35.090,0.234
772.929,0,0.033,0.023,-0.318,-0.073,-0.023,-0.079,-0.073,-0.069,-0.077,39.0824179,-75.8752700,-19.761,0.047,0.001,0.058,17,0.108,0.043,-9.733,-0.036,0.115,-0.038,-1407.000,498.000,48.000,-0.740,-0.673,-0.011,0.002,1008.380,20.321,40.601,-0.252,1009.030,20.770,35.173,0.284
777.929,0,-0.005,0.100,-0.060,0.053,0.104,-0.076,0.019,0.077,-0.059,39.0824171,-75.8752690,-19.422,-0.042,0.042,0.105,18,0.259,0.115,-9.747,0.006,-0.036,0.092,-1405.000,532.000,121.000,-0.713,-0.701,-0.010,0.003,1008.369,20.335,40.696,0.050,1009.180,20.790,33.921,-0.651
764.829,0,0.072,-0.022,-0.212,-0.024,-0.034,-0.096,-0.044,-0.005,-0.011,39.0824179,-75.8752697,-20.096,0.062,0.002,-0.049,17,0.158,0.007,-9.797,0.017,-0.045,0.049,-1376.000,534.000,24.000,-0.744,-0.668,-0.008,0.004,1008.366,20.313,40.717,-0.100,1009.070,20.770,34.839,-0.092
764.929,0,0.049,-0.030,-0.170,-0.047,-0.041,-0.083,-0.031,-0.023,-0.068,39.0824179,-75.8752698,-20.096,0.059,-0.006,-0.050,16,0.158,0.093,-9.740,-0.104,0.045,0.060,-1347.000,527.000,71.000,-0.746,-0.666,-0.011,0.002,1008.364,20.313,40.732,-0.082,1009.050,20.760,35.006,0.000
765.029,0,0.032,-0.042,-0.109,-0.040,-0.062,-0.072,-0.006,-0.040,-0.067,39.0824179,-75.8752698,-20.095,0.056,-0.005,-0.050,17,0.151,0.172,-9.740,-0.055,0.047,0.062,-1385.000,593.000,32.000,-0.748,-0.663,-0.013,-0.000,1008.353,20.312,40.826,-0.015,1009.040,20.770,35.090,0.117
765.129,0,0.049,-0.023,-0.040,-0.036,-0.048,-0.043,-0.035,0.026,-0.029,39.0824180,-75.8752698,-20.100,0.064,-0.004,-0.054,17,0.294,0.115,-9.776,-0.017,0.062,0.009,-1366.000,549.000,56.000,-0.749,-0.663,-0.016,0.003,1008.350,20.321,40.849,-0.000,1009.100,20.760,34.589,-0.376
765.229,0,0.045,-0.021,-0.024,-0.032,-0.046,-0.059,0.014,-0.009,-0.116,39.0824179,-75.8752698,-20.097,0.050,-0.003,-0.050,17,0.266,0.136,-9.690,0.051,0.013,-0.202,-1378.000,560.000,102.000,-0.742,-0.671,-0.015,0.005,1008.350,20.318,40.852,0.006,1009.100,20.770,34.589,-0.359
765.329,0,0.043,-0.023,-0.043,-0.030,-0.041,-0.075,-0.004,0.001,-0.053,39.0824180,-75.8752698,-20.082,0.057,-0.003,-0.032,17,0.201,0.144,-9.754,-0.028,-0.077,-0.087,-1358.000,535.000,43.000,-0.739,-0.674,-0.013,0.001,1008.358,20.315,40.785,-0.039,1009.080,20.760,34.756,-0.184
765.429,0,0.031,-0.027,-0.019,-0.086,-0.045,-0.054,-0.147,-0.027,-0.020,39.0824180,-75.8752698,-20.074,0.053,-0.002,-0.020,17,0.101,-0.050,-9.790,-0.089,-0.021,-0.066,-1354.000,526.000,56.000,-0.737,-0.676,-0.008,0.001,1008.349,20.324,40.862,0.050,1009.030,20.760,35.173,0.192
765.529,0,0.009,-0.029,0.096,-0.065,-0.006,-0.010,0.020,0.061,-0.096,39.0824179,-75.8752699,-20.065,0.038,-0.010,-0.004,16,0.208,0.129,-9.711,-0.004,-0.055,-0.166,-1369.000,582.000,37.000,-0.731,-0.682,-0.009,0.001,1008.324,20.322,41.065,0.249,1009.040,20.760,35.090,0.142
765.629,0,0.000,-0.018,0.099,-0.064,0.026,-0.027,-0.032,0.045,-0.045,39.0824180,-75.8752699,-20.055,0.044,-0.010,0.012,17,0.259,0.065,-9.762,-0.021,0.028,0.049,-1383.000,548.000,18.000,-0.733,-0.680,-0.012,0.004,1008.342,20.330,40.918,0.114,1009.070,20.760,34.839,-0.117
765.729,0,0.008,-0.014,0.062,0.008,-0.021,-0.093,0.075,-0.066,-0.096,39.0824180,-75.8752699,-20.051,0.040,-0.011,0.022,17,0.101,0.251,-9.711,0.006,0.002,0.121,-1342.000,517.000,63.000,-0.737,-0.676,-0.012,-0.001,1008.350,20.341,40.855,0.067,1009.020,20.760,35.256,0.359
765.829,0,0.035,-0.010,0.084,0.056,0.036,-0.070,0.057,0.069,-0.045,39.0824180,-75.8752699,-20.043,0.036,-0.012,0.035,16,0.208,0.172,-9.762,0.104,-0.102,-0.017,-1392.000,545.000,68.000,-0.736,-0.677,-0.009,0.000,1008.341,20.335,40.930,0.152,1009.080,20.770,34.756,-0.125
765.929,0,0.047,0.020,0.093,0.006,0.102,-0.074,-0.044,0.091,-0.053,39.0824180,-75.8752699,-20.043,0.031,-0.012,0.040,16,0.237,0.057,-9.754,-0.038,-0.072,-0.089,-1368.000,569.000,43.000,-0.733,-0.680,-0.009,0.001,1008.344,20.327,40.906,0.146,1009.030,20.770,35.173,0.334
766.029,0,0.025,0.051,0.087,-0.051,0.097,-0.081,-0.056,0.030,-0.048,39.0824180,-75.8752699,-20.037,0.027,-0.012,0.050,17,0.115,-0.007,-9.762,0.000,-0.087,-0.017,-1391.000,595.000,41.000,-0.733,-0.680,-0.005,0.001,1008.346,20.327,40.883,0.138,1009.110,20.770,34.505,-0.350
766.129,0,0.027,0.013,0.195,-0.052,0.079,-0.036,-0.029,0.005,-0.032,39.0824181,-75.8752700,-20.021,0.032,-0.021,0.071,18,0.129,0.151,-9.776,-0.162,0.034,-0.036,-1419.000,562.000,28.000,-0.732,-0.682,-0.011,-0.002,1008.333,20.329,40.997,0.253,1009.080,20.770,34.756,-0.059
766.229,0,0.017,0.012,0.176,-0.042,0.071,-0.076,0.042,-0.006,-0.167,39.0824180,-75.8752699,-20.017,0.018,-0.012,0.077,18,0.165,0.230,-9.639,0.034,0.049,0.021,-1378.000,526.000,56.000,-0.732,-0.681,-0.013,-0.001,1008.343,20.327,40.914,0.169,1009.060,20.770,34.923,0.125
766.329,0,0.012,0.015,0.135,-0.034,0.043,-0.098,0.015,-0.067,-0.052,39.0824181,-75.8752699,-20.019,0.026,-0.012,0.076,18,0.151,0.215,-9.754,0.013,0.113,0.043,-1378.000,527.000,12.000,-0.734,-0.679,-0.015,0.000,1008.347,20.313,40.880,0.120,1009.040,20.760,35.090,0.292
766.429,0,0.007,0.016,0.110,-0.033,0.033,-0.127,-0.009,-0.006,-0.097,39.0824181,-75.8752699,-20.015,0.022,-0.012,0.079,18,0.151,0.136,-9.711,0.040,-0.055,0.156,-1409.000,527.000,12.000,-0.739,-0.674,-0.011,-0.000,1008.343,20.319,40.913,0.140,1009.060,20.780,34.923,0.125
766.529,0,0.012,0.018,0.054,0.008,0.042,-0.160,0.063,0.037,-0.089,39.0824182,-75.8752699,-20.011,0.032,-0.010,0.079,18,0.201,0.129,-9.718,0.141,-0.040,-0.089,-1387.000,579.000,29.000,-0.736,-0.677,-0.008,0.003,1008.347,20.321,40.881,0.076,1009.110,20.760,34.505,-0.326
766.629,0,0.012,0.026,-0.022,-0.026,0.063,-0.165,-0.060,0.059,-0.040,39.0824181,-75.8752699,-20.008,0.019,-0.009,0.078,18,0.180,0.014,-9.769,-0.070,-0.092,-0.224,-1346.000,533.000,111.000,-0.728,-0.685,-0.007,0.001,1008.353,20.319,40.828,0.005,1009.020,20.770,35.256,0.409
766.729,0,0.002,0.025,-0.116,-0.038,0.032,-0.190,-0.027,-0.012,-0.069,39.0824181,-75.8752700,-20.000,0.017,-0.016,0.081,18,0.086,0.101,-9.740,-0.079,-0.011,0.066,-1400.000,562.000,78.000,-0.731,-0.683,-0.008,-0.001,1008.361,20.326,40.759,-0.087,1009.090,20.770,34.672,-0.251
766.829,0,-0.002,0.031,-0.171,-0.037,0.089,-0.199,-0.018,0.100,-0.096,39.0824182,-75.8752700,-19.994,0.027,-0.014,0.082,18,0.251,0.057,-9.711,0.021,-0.047,-0.051,-1377.000,501.000,84.000,-0.729,-0.685,-0.009,0.002,1008.359,20.323,40.777,-0.091,1009.030,20.760,35.173,0.259
766.929,0,0.009,0.064,-0.208,0.021,0.159,-0.162,0.052,0.122,-0.045,39.0824182,-75.8752700,-19.994,0.026,-0.013,0.076,18,0.266,0.122,-9.762,0.047,-0.143,0.079,-1395.000,508.000,82.000,-0.732,-0.682,-0.008,0.002,1008.360,20.324,40.769,-0.116,1009.080,20.770,34.756,-0.175
767.029,0,0.026,0.090,-0.124,0.015,0.116,-0.031,-0.005,0.014,0.025,39.0824182,-75.8752700,-19.999,0.024,-0.012,0.066,17,0.151,0.072,-9.833,-0.004,-0.017,-0.002,-1412.000,547.000,60.000,-0.731,-0.682,-0.008,0.002,1008.345,20.319,40.890,-0.001,1009.060,20.760,34.923,0.050
767.129,0,0.032,0.036,-0.099,0.021,0.097,-0.027,0.036,0.046,-0.060,39.0824183,-75.8752700,-20.009,0.034,-0.010,0.048,17,0.215,0.136,-9.747,0.004,-0.019,0.038,-1400.000,526.000,82.000,-0.733,-0.680,-0.010,0.002,1008.354,20.326,40.821,-0.084,1009.070,20.760,34.839,-0.050
767.229,0,0.034,0.029,-0.114,0.003,0.089,-0.051,-0.079,0.011,-0.098,39.0824183,-75.8752700,-20.010,0.033,-0.010,0.039,17,0.165,-0.014,-9.711,-0.040,-0.011,-0.047,-1403.000,543.000,69.000,-0.731,-0.682,-0.008,0.003,1008.357,20.325,40.791,-0.120,1009.090,20.770,34.672,-0.251
767.329,0,0.030,0.033,-0.127,0.001,0.077,-0.082,-0.000,-0.007,-0.105,39.0824182,-75.8752700,-20.010,0.021,-0.009,0.032,17,0.122,0.086,-9.704,-0.023,-0.026,0.132,-1382.000,502.000,104.000,-0.736,-0.677,-0.008,0.001,1008.356,20.318,40.805,-0.116,1009.080,20.760,34.756,-0.200
767.429,0,0.028,0.041,-0.189,0.013,0.087,-0.078,0.034,0.054,0.046,39.0824182,-75.8752700,-20.010,0.020,-0.008,0.027,18,0.158,0.065,-9.855,0.085,-0.085,-0.153,-1423.000,510.000,83.000,-0.730,-0.683,-0.005,0.002,1008.368,20.320,40.702,-0.224,1009.100,20.780,34.589,-0.342
767.529,0,0.039,0.056,-0.195,0.079,0.119,-0.117,0.141,0.105,-0.136,39.0824182,-75.8752700,-20.002,0.017,-0.008,0.029,18,0.309,0.230,-9.668,0.075,-0.021,-0.002,-1424.000,558.000,95.000,-0.730,-0.683,-0.011,0.003,1008.360,20.319,40.766,-0.142,1009.050,20.770,35.006,0.134
767.629,0,0.054,0.066,-0.257,0.061,0.089,-0.122,-0.000,0.008,-0.024,39.0824182,-75.8752700,-19.991,0.016,-0.008,0.036,18,0.180,0.165,-9.783,-0.072,-0.034,0.032,-1420.000,538.000,155.000,-0.731,-0.682,-0.012,-0.000,1008.374,20.321,40.655,-0.244,1009.040,20.760,35.090,0.176
767.729,0,0.045,0.065,-0.217,0.012,0.078,-0.062,-0.035,0.039,-0.023,39.0824181,-75.8752700,-19.977,0.003,-0.007,0.044,18,0.251,0.136,-9.783,-0.047,0.006,0.015,-1398.000,544.000,42.000,-0.732,-0.681,-0.014,0.001,1008.361,20.315,40.761,-0.128,1009.060,20.770,34.923,0.067
767.829,0,0.020,0.048,-0.257,-0.026,0.011,-0.101,-0.033,-0.043,-0.069,39.0824181,-75.8752700,-19.969,0.001,-0.006,0.047,17,0.115,0.115,-9.740,0.000,-0.009,-0.064,-1404.000,524.000,95.000,-0.730,-0.684,-0.011,0.000,1008.376,20.323,40.638,-0.236,1009.040,20.760,35.090,0.192
767.929,0,-0.010,0.023,-0.276,-0.062,-0.003,-0.141,-0.044,0.002,-0.105,39.0824181,-75.8752700,-19.957,-0.001,-0.005,0.055,18,0.136,0.072,-9.704,-0.017,-0.021,0.019,-1399.000,500.000,86.000,-0.731,-0.683,-0.009,0.000,1008.374,20.327,40.650,-0.210,1009.040,20.770,35.090,0.234
768.029,0,-0.029,0.013,-0.377,-0.007,0.020,-0.249,0.046,0.031,-0.160,39.0824180,-75.8752700,-19.943,-0.014,-0.004,0.065,18,0.180,0.201,-9.647,0.002,-0.026,-0.045,-1385.000,559.000,81.000,-0.729,-0.684,-0.011,-0.001,1008.386,20.324,40.552,-0.309,1009.060,20.760,34.923,0.025
768.129,0,-0.022,0.003,-0.258,-0.005,0.010,-0.201,-0.007,-0.049,-0.118,39.0824180,-75.8752700,-19.943,-0.017,-0.004,0.064,17,0.129,0.194,-9.690,-0.045,0.085,-0.083,-1432.000,516.000,100.000,-0.726,-0.687,-0.014,-0.001,1008.373,20.324,40.659,-0.184,1009.060,20.770,34.923,0.017
768.229,0,-0.022,0.003,-0.143,-0.010,0.024,-0.158,-0.026,0.069,-0.072,39.0824180,-75.8752700,-19.941,-0.020,-0.003,0.065,18,0.294,0.151,-9.733,-0.011,-0.019,-0.028,-1381.000,531.000,93.000,-0.725,-0.688,-0.015,0.001,1008.349,20.327,40.859,0.028,1009.050,20.770,35.006,0.125
768.329,0,-0.023,0.005,-0.144,0.000,0.015,-0.165,0.031,-0.021,-0.088,39.0824180,-75.8752700,-19.932,-0.021,-0.003,0.073,18,0.187,0.165,-9.718,0.083,0.000,-0.109,-1384.000,507.000,75.000,-0.721,-0.692,-0.012,0.002,1008.362,20.327,40.750,-0.073,1009.060,20.770,34.923,0.075
768.429,0,-0.029,0.007,-0.153,-0.018,0.019,-0.145,-0.041,0.014,-0.031,39.0824179,-75.8752700,-19.926,-0.033,-0.002,0.079,18,0.215,0.144,-9.776,-0.096,-0.017,0.028,-1384.000,504.000,73.000,-0.722,-0.691,-0.014,0.000,1008.365,20.330,40.724,-0.078,1009.060,20.770,34.923,0.109
768.529,0,-0.037,0.008,-0.159,-0.023,0.007,-0.126,-0.011,-0.015,-0.054,39.0824179,-75.8752700,-19.927,-0.033,-0.001,0.077,18,0.165,0.122,-9.754,0.043,-0.006,-0.002,-1414.000,485.000,76.000,-0.722,-0.691,-0.011,0.001,1008.367,20.338,40.709,-0.082,1009.050,20.770,35.006,0.142
768.629,0,-0.048,0.015,-0.151,-0.015,0.029,-0.122,0.010,0.040,-0.096,39.0824178,-75.8752699,-19.918,-0.046,0.009,0.084,18,0.172,0.165,-9.711,-0.015,-0.089,-0.043,-1370.000,521.000,36.000,-0.721,-0.693,-0.010,-0.001,1008.368,20.325,40.705,-0.068,1009.100,20.770,34.589,-0.259
768.729,0,-0.052,0.026,-0.122,-0.009,0.040,-0.044,0.004,0.028,0.018,39.0824178,-75.8752699,-19.927,-0.046,0.009,0.073,17,0.144,0.136,-9.826,0.028,-0.047,-0.011,-1400.000,537.000,52.000,-0.721,-0.693,-0.009,-0.001,1008.365,20.319,40.727,-0.047,1009.060,20.760,34.923,0.050
768.829,0,-0.050,0.026,-0.015,0.001,0.002,-0.001,0.009,-0.034,-0.047,39.0824178,-75.8752699,-19.926,-0.044,0.009,0.071,18,0.086,0.129,-9.762,0.023,0.038,0.087,-1378.000,540.000,84.000,-0.724,-0.690,-0.009,-0.000,1008.352,20.331,40.839,0.080,1009.100,20.770,34.589,-0.275
768.929,0,-0.041,0.026,-0.012,0.049,0.039,-0.120,0.060,0.051,-0.168,39.0824177,-75.8752699,-19.926,-0.054,0.009,0.067,18,0.187,0.158,-9.639,0.079,-0.038,-0.060,-1420.000,513.000,106.000,-0.721,-0.692,-0.009,0.001,1008.359,20.331,40.778,0.030,1009.060,20.760,34.923,0.025
769.029,0,-0.025,0.019,-0.096,0.040,-0.032,-0.134,0.005,-0.063,-0.040,39.0824177,-75.8752699,-19.925,-0.052,0.009,0.063,18,0.108,0.151,-9.769,-0.034,0.100,0.006,-1395.000,541.000,87.000,-0.722,-0.692,-0.011,0.001,1008.374,20.334,40.650,-0.064,1009.100,20.780,34.589,-0.309
769.129,0,-0.037,0.011,-0.014,0.036,-0.035,-0.099,0.017,-0.019,-0.046,39.0824177,-75.8752699,-19.919,-0.049,0.009,0.062,18,0.115,0.201,-9.762,-0.026,-0.023,0.179,-1416.000,529.000,69.000,-0.728,-0.686,-0.011,-0.002,1008.364,20.329,40.732,0.034,1009.070,20.770,34.839,-0.067
769.229,0,-0.041,0.006,0.000,0.027,-0.024,-0.098,-0.021,0.046,-0.059,39.0824176,-75.8752699,-19.918,-0.057,0.009,0.056,17,0.230,0.144,-9.747,-0.009,0.009,-0.019,-1398.000,550.000,9.000,-0.727,-0.686,-0.013,0.000,1008.363,20.332,40.746,0.041,1009.070,20.770,34.839,-0.100
769.329,0,-0.042,0.003,0.028,0.014,-0.016,-0.113,-0.032,0.021,-0.125,39.0824176,-75.8752699,-19.917,-0.054,0.009,0.049,17,0.208,0.122,-9.682,-0.021,-0.013,-0.049,-1363.000,552.000,11.000,-0.726,-0.688,-0.013,0.001,1008.355,20.329,40.810,0.111,1009.060,20.770,34.923,-0.033
769.429,0,-0.043,0.003,0.018,0.004,0.003,-0.113,-0.017,0.042,-0.053,39.0824176,-75.8752699,-19.911,-0.051,0.009,0.047,18,0.223,0.093,-9.754,0.028,-0.049,-0.138,-1375.000,546.000,76.000,-0.721,-0.693,-0.011,0.002,1008.360,20.329,40.772,0.070,1009.190,20.780,33.837,-1.152
769.529,0,-0.041,0.005,0.013,0.020,0.013,-0.129,0.036,0.021,-0.109,39.0824176,-75.8752700,-19.906,-0.048,0.000,0.045,18,0.223,0.172,-9.697,0.009,-0.004,0.104,-1393.000,563.000,88.000,-0.724,-0.689,-0.012,0.002,1008.359,20.332,40.776,0.080,1009.000,20.760,35.424,0.434
769.629,0,-0.037,0.007,0.044,0.008,-0.008,-0.092,-0.015,-0.034,-0.062,39.0824176,-75.8752699,-19.905,-0.043,0.008,0.038,18,0.115,0.093,-9.747,0.017,-0.017,0.028,-1403.000,505.000,88.000,-0.725,-0.688,-0.009,0.001,1008.351,20.338,40.841,0.141,1009.130,20.780,34.338,-0.601
769.729,0,-0.039,-0.008,-0.032,0.012,-0.048,-0.120,0.015,-0.059,-0.040,39.0824175,-75.8752700,-19.895,-0.051,-0.002,0.043,18,0.122,0.144,-9.769,0.000,0.089,0.036,-1406.000,530.000,77.000,-0.727,-0.687,-0.011,0.002,1008.372,20.325,40.667,-0.030,1009.090,20.770,34.672,-0.267
769.829,0,-0.040,-0.024,-0.108,0.002,-0.041,-0.147,-0.007,-0.006,-0.060,39.0824175,-75.8752700,-19.898,-0.048,-0.003,0.036,18,0.172,0.136,-9.747,-0.026,0.006,-0.015,-1407.000,497.000,78.000,-0.726,-0.688,-0.012,0.001,1008.376,20.333,40.636,-0.082,1009.080,20.770,34.756,-0.134
769.929,0,-0.035,-0.041,0.011,0.027,-0.083,-0.142,0.031,-0.069,-0.161,39.0824175,-75.8752700,-19.893,-0.043,-0.003,0.038,18,0.086,0.201,-9.647,0.011,0.043,0.100,-1406.000,506.000,70.000,-0.729,-0.684,-0.012,-0.001,1008.342,20.329,40.920,0.190,1008.990,20.770,35.507,0.635
770.029,0,-0.030,-0.046,0.029,0.028,-0.016,-0.075,0.012,0.044,-0.007,39.0824174,-75.8752700,-19.889,-0.051,-0.004,0.040,18,0.230,0.230,-9.797,-0.045,-0.015,0.032,-1365.000,541.000,114.000,-0.730,-0.683,-0.015,-0.002,1008.349,20.329,40.858,0.118,1009.050,20.770,35.006,0.167
770.129,0,-0.040,-0.022,0.052,0.014,-0.008,-0.074,-0.076,-0.015,-0.098,39.0824174,-75.8752700,-19.891,-0.048,-0.005,0.036,18,0.079,0.079,-9.711,-0.011,-0.066,-0.017,-1426.000,544.000,134.000,-0.730,-0.683,-0.009,-0.002,1008.354,20.323,40.816,0.069,1009.050,20.770,35.006,0.175
770.229,0,-0.040,-0.015,0.030,0.009,0.013,-0.081,-0.018,0.083,-0.025,39.0824174,-75.8752700,-19.887,-0.043,-0.006,0.037,17,0.187,0.093,-9.783,0.015,-0.079,-0.019,-1411.000,492.000,85.000,-0.729,-0.684,-0.008,-0.001,1008.361,20.323,40.761,0.025,1009.100,20.780,34.589,-0.225
770.329,0,-0.039,-0.007,0.139,-0.007,0.032,-0.046,-0.049,0.056,-0.061,39.0824174,-75.8752700,-19.882,-0.039,-0.007,0.041,18,0.165,0.079,-9.747,-0.066,-0.045,-0.130,-1386.000,512.000,55.000,-0.725,-0.689,-0.009,-0.001,1008.326,20.334,41.054,0.312,1009.030,20.780,35.173,0.359
770.429,0,-0.046,0.006,0.263,-0.024,0.067,0.025,-0.038,0.090,-0.009,39.0824173,-75.8752700,-19.882,-0.047,-0.008,0.039,18,0.244,0.108,-9.797,-0.062,-0.045,-0.062,-1384.000,530.000,56.000,-0.723,-0.691,-0.011,-0.000,1008.311,20.323,41.181,0.434,1009.000,20.770,35.424,0.718
770.529,0,-0.051,0.021,0.362,-0.036,0.058,0.004,-0.036,0.005,-0.162,39.0824174,-75.8752700,-19.881,-0.032,-0.008,0.038,18,0.165,0.101,-9.647,-0.028,0.004,0.062,-1384.000,535.000,122.000,-0.725,-0.689,-0.011,0.001,1008.306,20.332,41.220,0.467,1009.070,20.770,34.839,0.092
770.629,0,-0.062,0.024,0.274,-0.073,0.046,-0.078,-0.083,0.011,-0.053,39.0824174,-75.8752701,-19.878,-0.030,-0.016,0.040,18,0.230,0.072,-9.754,-0.107,0.053,0.179,-1373.000,529.000,126.000,-0.731,-0.682,-0.014,0.002,1008.335,20.332,40.978,0.211,1009.020,20.770,35.256,0.534
770.729,0,-0.076,0.013,0.316,-0.085,-0.007,-0.036,-0.053,-0.051,-0.025,39.0824174,-75.8752701,-19.869,-0.027,-0.016,0.046,18,0.151,0.108,-9.783,-0.051,0.036,-0.028,-1349.000,541.000,63.000,-0.730,-0.683,-0.013,0.001,1008.315,20.327,41.147,0.386,1009.080,20.770,34.756,0.058
770.829,0,-0.070,-0.007,0.314,-0.013,-0.023,-0.105,0.054,-0.014,-0.129,39.0824174,-75.8752701,-19.863,-0.023,-0.015,0.049,17,0.208,0.266,-9.675,-0.002,0.023,0.104,-1385.000,543.000,94.000,-0.734,-0.679,-0.016,-0.000,1008.320,20.328,41.098,0.358,1009.060,20.790,34.923,0.209
770.929,0,-0.063,-0.033,0.298,-0.068,-0.076,-0.086,-0.085,-0.069,-0.027,39.0824174,-75.8752701,-19.855,-0.021,-0.014,0.054,18,0.022,0.086,-9.783,-0.032,-0.049,-0.021,-1413.000,527.000,88.000,-0.733,-0.680,-0.009,-0.003,1008.320,20.322,41.104,0.349,1009.050,20.770,35.006,0.234
771.029,0,-0.062,-0.041,0.215,-0.027,-0.003,-0.107,0.015,0.056,-0.030,39.0824174,-75.8752701,-19.849,-0.018,-0.013,0.056,18,0.208,0.208,-9.776,-0.023,-0.004,0.098,-1416.000,555.000,76.000,-0.736,-0.676,-0.013,-0.002,1008.332,20.323,41.002,0.226,1009.010,20.770,35.340,0.526
771.129,0,-0.035,-0.019,0.204,-0.021,0.001,-0.117,-0.039,-0.038,-0.083,39.0824174,-75.8752700,-19.842,-0.014,-0.003,0.060,18,0.050,0.136,-9.726,-0.011,-0.017,-0.049,-1417.000,560.000,53.000,-0.735,-0.678,-0.009,-0.003,1008.333,20.319,40.990,0.206,1009.050,20.760,35.006,0.175
771.229,0,-0.023,-0.011,0.193,-0.021,0.017,-0.118,-0.025,0.062,-0.032,39.0824175,-75.8752700,-19.831,-0.001,-0.003,0.068,18,0.201,0.115,-9.776,-0.002,-0.011,0.055,-1365.000,542.000,81.000,-0.737,-0.676,-0.010,-0.001,1008.333,20.321,40.996,0.210,1009.100,20.770,34.589,-0.217
771.329,0,-0.017,-0.004,0.165,-0.001,0.014,-0.154,0.049,-0.011,-0.132,39.0824175,-75.8752700,-19.829,0.001,-0.002,0.067,18,0.122,0.215,-9.675,0.028,-0.006,0.032,-1389.000,556.000,55.000,-0.738,-0.675,-0.011,-0.002,1008.333,20.320,40.997,0.187,1009.000,20.770,35.424,0.593
771.429,0,-0.011,-0.003,0.072,-0.011,-0.012,-0.219,-0.035,-0.062,-0.134,39.0824175,-75.8752700,-19.823,0.004,-0.001,0.070,18,0.014,0.108,-9.675,0.000,0.017,0.011,-1371.000,524.000,62.000,-0.738,-0.675,-0.008,-0.002,1008.343,20.326,40.907,0.056,1009.050,20.770,35.006,0.017
771.529,0,-0.010,0.004,-0.077,-0.027,0.047,-0.259,-0.043,0.116,-0.044,39.0824175,-75.8752700,-19.818,0.007,-0.001,0.072,18,0.294,0.086,-9.762,-0.053,-0.009,-0.062,-1396.000,491.000,64.000,-0.736,-0.677,-0.012,0.001,1008.357,20.332,40.792,-0.103,1009.020,20.770,35.256,0.325
771.629,0,-0.016,0.015,-0.162,-0.049,0.023,-0.199,-0.053,-0.028,0.025,39.0824175,-75.8752700,-19.807,0.009,0.001,0.081,18,0.172,0.036,-9.833,0.000,0.053,0.164,-1380.000,498.000,74.000,-0.742,-0.671,-0.011,0.004,1008.356,20.329,40.803,-0.106,1009.110,20.770,34.505,-0.517
771.729,0,-0.012,0.018,-0.265,0.009,0.026,-0.218,0.063,0.017,-0.075,39.0824175,-75.8752700,-19.808,0.010,0.002,0.077,18,0.151,0.158,-9.733,0.049,-0.102,0.028,-1360.000,540.000,103.000,-0.743,-0.670,-0.008,0.001,1008.364,20.329,40.733,-0.224,1009.070,20.780,34.839,-0.192
771.829,0,-0.000,0.029,-0.368,-0.008,0.064,-0.249,-0.028,0.064,-0.109,39.0824175,-75.8752700,-19.795,0.011,0.003,0.086,18,0.259,0.093,-9.697,-0.072,0.009,0.217,-1376.000,539.000,73.000,-0.750,-0.662,-0.012,0.002,1008.368,20.327,40.704,-0.300,1009.140,20.770,34.255,-0.793
771.929,0,0.009,0.048,-0.485,0.021,0.080,-0.223,0.030,0.045,-0.039,39.0824175,-75.8752700,-19.784,0.012,0.003,0.094,18,0.180,0.151,-9.769,0.028,-0.119,-0.026,-1358.000,531.000,97.000,-0.749,-0.663,-0.009,-0.000,1008.379,20.329,40.609,-0.413,1009.090,20.770,34.672,-0.326
772.029,0,0.026,0.067,-0.529,0.042,0.092,-0.171,0.028,0.045,-0.038,39.0824175,-75.8752700,-19.781,0.012,0.004,0.093,18,0.208,0.158,-9.769,0.015,-0.019,-0.049,-1373.000,501.000,46.000,-0.747,-0.664,-0.011,0.000,1008.379,20.324,40.614,-0.423,1009.160,20.780,34.088,-0.943
772.129,0,0.020,0.034,-0.469,0.034,0.080,-0.144,-0.032,0.036,-0.061,39.0824175,-75.8752700,-19.768,0.012,0.004,0.101,18,0.187,0.050,-9.747,0.015,-0.038,-0.034,-1358.000,495.000,28.000,-0.746,-0.666,-0.009,0.002,1008.377,20.327,40.626,-0.427,1009.100,20.770,34.589,-0.442
772.229,0,0.021,0.032,-0.468,0.031,0.073,-0.139,-0.001,-0.002,-0.033,39.0824175,-75.8752700,-19.755,0.011,0.004,0.108,18,0.129,0.101,-9.776,-0.017,-0.023,0.066,-1382.000,499.000,86.000,-0.748,-0.663,-0.008,0.001,1008.375,20.314,40.646,-0.431,1009.120,20.780,34.422,-0.609
772.329,0,0.029,0.036,-0.476,0.045,0.064,-0.154,0.045,-0.006,-0.097,39.0824176,-75.8752700,-19.751,0.021,0.004,0.107,18,0.101,0.151,-9.711,0.043,-0.030,-0.011,-1372.000,551.000,11.000,-0.748,-0.664,-0.007,-0.001,1008.374,20.327,40.650,-0.422,1009.110,20.770,34.505,-0.551
772.429,0,0.036,0.045,-0.472,0.033,0.087,-0.135,-0.016,0.081,-0.044,39.0824176,-75.8752700,-19.757,0.019,0.004,0.095,18,0.309,0.079,-9.762,-0.026,0.051,0.032,-1374.000,493.000,76.000,-0.749,-0.662,-0.012,0.004,1008.373,20.325,40.659,-0.385,1009.030,20.770,35.173,0.158
772.529,0,0.044,0.056,-0.449,0.030,0.071,-0.092,0.005,0.006,-0.030,39.0824177,-75.8752700,-19.760,0.029,0.004,0.086,18,0.244,0.129,-9.776,-0.017,0.000,0.019,-1350.000,514.000,94.000,-0.750,-0.662,-0.013,0.003,1008.374,20.321,40.648,-0.353,1009.010,20.780,35.340,0.284
772.629,0,0.057,0.057,-0.406,0.053,0.059,-0.111,0.049,0.021,-0.158,39.0824178,-75.8752700,-19.765,0.039,0.003,0.074,17,0.273,0.187,-9.647,0.032,-0.015,-0.092,-1412.000,518.000,121.000,-0.747,-0.665,-0.014,0.003,1008.371,20.327,40.680,-0.303,1009.100,20.780,34.589,-0.392
772.729,0,0.064,0.042,-0.369,0.029,-0.006,-0.092,-0.012,-0.060,-0.084,39.0824178,-75.8752700,-19.769,0.038,0.003,0.064,17,0.101,0.086,-9.726,0.047,-0.026,-0.081,-1357.000,500.000,51.000,-0.744,-0.668,-0.009,0.002,1008.372,20.327,40.666,-0.277,1009.070,20.770,34.839,-0.150
772.829,0,0.059,0.032,-0.344,-0.013,0.054,-0.065,-0.044,0.093,-0.039,39.0824179,-75.8752700,-19.777,0.048,0.002,0.049,18,0.237,0.086,-9.769,-0.100,-0.102,-0.089,-1348.000,500.000,24.000,-0.741,-0.671,-0.010,-0.000,1008.377,20.327,40.627,-0.276,1009.090,20.770,34.672,-0.251
772.929,0,0.033,0.023,-0.318,-0.073,-0.023,-0.079,-0.073,-0.069,-0.077,39.0824179,-75.8752700,-19.761,0.047,0.001,0.058,17,0.108,0.043,-9.733,-0.036,0.115,-0.038,-1407.000,498.000,48.000,-0.740,-0.673,-0.011,0.002,1008.380,20.321,40.601,-0.252,1009.030,20.770,35.173,0.284
773.029,0,0.009,0.014,-0.273,-0.056,0.018,-0.048,-0.003,0.043,-0.032,39.0824179,-75.8752699,-19.740,0.046,0.009,0.072,17,0.201,0.101,-9.776,-0.004,-0.070,-0.043,-1390.000,522.000,76.000,-0.738,-0.674,-0.010,0.001,1008.378,20.338,40.617,-0.198,1009.070,20.770,34.839,0.075
773.129,0,0.027,0.012,-0.207,-0.044,0.024,-0.016,0.013,0.061,0.019,39.0824179,-75.8752699,-19.726,0.044,0.009,0.078,17,0.215,0.086,-9.826,0.038,-0.068,-0.089,-1381.000,506.000,75.000,-0.735,-0.678,-0.008,0.002,1008.379,20.340,40.607,-0.171,1009.080,20.770,34.756,0.033
773.229,0,0.029,0.014,-0.199,-0.033,0.034,-0.038,0.035,0.048,-0.118,39.0824179,-75.8752699,-19.718,0.044,0.009,0.079,16,0.144,0.151,-9.690,-0.011,-0.111,-0.087,-1397.000,533.000,66.000,-0.732,-0.681,-0.008,-0.001,1008.385,20.341,40.559,-0.184,1009.100,20.770,34.589,-0.117
773.329,0,0.028,0.021,-0.183,-0.033,0.048,-0.056,-0.011,0.052,-0.097,39.0824179,-75.8752699,-19.710,0.043,0.009,0.079,18,0.151,0.086,-9.711,0.006,-0.045,-0.062,-1394.000,526.000,52.000,-0.730,-0.683,-0.007,-0.000,1008.384,20.333,40.567,-0.142,1009.000,20.760,35.424,0.810
773.429,0,0.026,0.033,-0.159,-0.017,0.049,-0.063,0.025,0.012,-0.083,39.0824179,-75.8752698,-19.696,0.042,0.017,0.086,18,0.122,0.136,-9.726,0.015,-0.004,-0.113,-1369.000,521.000,37.000,-0.726,-0.687,-0.008,-0.000,1008.381,20.341,40.590,-0.094,1009.120,20.770,34.422,-0.209
773.529,0,0.030,0.040,-0.114,0.012,0.029,-0.053,0.048,-0.022,-0.083,39.0824179,-75.8752698,-19.676,0.040,0.017,0.101,18,0.072,0.180,-9.726,0.030,0.000,0.081,-1375.000,537.000,75.000,-0.729,-0.684,-0.008,-0.002,1008.375,20.351,40.644,-0.025,1009.100,20.780,34.589,-0.050
773.629,0,0.036,0.044,-0.062,0.002,0.046,-0.057,-0.016,0.047,-0.109,39.0824179,-75.8752698,-19.669,0.037,0.017,0.103,18,0.208,0.172,-9.697,-0.081,0.028,-0.070,-1375.000,524.000,65.000,-0.727,-0.687,-0.013,-0.001,1008.371,20.330,40.678,0.021,1009.000,20.770,35.424,0.776
773.729,0,0.030,0.055,-0.028,-0.027,0.076,-0.069,-0.043,0.070,-0.095,39.0824179,-75.8752698,-19.659,0.033,0.017,0.109,18,0.215,0.172,-9.711,-0.075,-0.083,-0.098,-1370.000,524.000,65.000,-0.724,-0.690,-0.013,-0.003,1008.370,20.343,40.689,0.039,1009.020,20.770,35.256,0.609
773.829,0,0.008,0.054,0.176,-0.073,0.008,0.077,-0.070,-0.057,0.017,39.0824179,-75.8752698,-19.637,0.029,0.017,0.130,18,0.129,0.007,-9.826,0.081,0.102,0.047,-1384.000,539.000,32.000,-0.725,-0.689,-0.010,0.004,1008.336,20.325,40.969,0.327,1009.050,20.760,35.006,0.317
773.929,0,-0.010,0.028,0.135,-0.047,-0.037,-0.031,0.007,-0.042,-0.075,39.0824179,-75.8752698,-19.641,0.024,0.017,0.123,17,0.201,0.072,-9.733,0.021,0.098,-0.009,-1367.000,504.000,53.000,-0.725,-0.689,-0.011,0.006,1008.364,20.330,40.732,0.091,1009.010,20.770,35.340,0.601
774.029,0,0.002,-0.005,0.065,0.032,-0.075,-0.079,0.067,-0.049,-0.039,39.0824179,-75.8752698,-19.628,0.020,0.016,0.132,16,0.129,0.201,-9.769,0.002,-0.021,-0.107,-1397.000,515.000,66.000,-0.721,-0.693,-0.011,0.001,1008.369,20.334,40.697,0.055,1009.010,20.770,35.340,0.526
774.129,0,0.012,0.003,0.078,0.033,-0.073,-0.073,-0.012,-0.036,-0.033,39.0824179,-75.8752698,-19.623,0.016,0.016,0.133,17,0.115,0.122,-9.776,-0.011,0.013,-0.034,-1372.000,521.000,115.000,-0.720,-0.694,-0.010,0.000,1008.365,20.333,40.729,0.089,1009.100,20.780,34.589,-0.242
774.229,0,0.015,-0.001,0.093,0.023,-0.062,-0.068,-0.038,0.030,-0.031,39.0824179,-75.8752698,-19.611,0.011,0.015,0.141,18,0.215,0.144,-9.776,-0.094,0.006,0.072,-1338.000,550.000,21.000,-0.722,-0.691,-0.013,-0.000,1008.361,20.325,40.760,0.128,1009.040,20.760,35.090,0.242
774.329,0,0.015,-0.009,0.094,0.005,-0.066,-0.073,-0.049,-0.027,-0.047,39.0824179,-75.8752698,-19.602,0.008,0.014,0.146,18,0.165,0.057,-9.762,0.032,0.038,-0.107,-1375.000,550.000,55.000,-0.719,-0.695,-0.011,0.003,1008.362,20.328,40.750,0.127,1009.060,20.770,34.923,-0.017
774.429,0,0.013,-0.018,0.061,0.006,-0.055,-0.089,0.008,0.006,-0.038,39.0824179,-75.8752698,-19.602,0.004,0.012,0.140,18,0.208,0.136,-9.769,-0.017,0.000,0.070,-1352.000,540.000,33.000,-0.721,-0.693,-0.012,0.002,1008.371,20.336,40.680,0.064,1009.080,20.780,34.756,-0.109
774.529,0,0.010,-0.026,0.074,0.000,-0.061,-0.096,-0.005,-0.037,-0.097,39.0824179,-75.8752698,-19.598,0.002,0.010,0.136,18,0.144,0.115,-9.711,0.006,0.019,-0.032,-1407.000,565.000,38.000,-0.720,-0.694,-0.011,0.002,1008.361,20.332,40.761,0.146,1009.100,20.780,34.589,-0.200
774.629,0,-0.003,-0.030,0.075,-0.025,-0.042,-0.097,-0.034,0.000,-0.075,39.0824178,-75.8752698,-19.593,-0.010,0.009,0.131,18,0.158,0.144,-9.733,-0.098,-0.023,0.132,-1413.000,530.000,-19.000,-0.725,-0.689,-0.012,-0.001,1008.362,20.327,40.750,0.135,1009.090,20.800,34.672,-0.201
774.729,0,-0.022,-0.022,0.057,-0.055,-0.005,-0.110,-0.051,0.029,-0.074,39.0824178,-75.8752698,-19.595,-0.011,0.007,0.118,18,0.230,0.086,-9.733,-0.015,0.017,0.085,-1396.000,526.000,11.000,-0.728,-0.686,-0.012,0.002,1008.365,20.340,40.723,0.105,1009.110,20.770,34.505,-0.409
774.829,0,-0.037,-0.006,0.009,-0.043,0.018,-0.144,-0.003,0.021,-0.086,39.0824178,-75.8752698,-19.588,-0.011,0.005,0.111,18,0.266,0.180,-9.718,-0.047,0.023,-0.136,-1351.000,557.000,24.000,-0.723,-0.691,-0.016,0.002,1008.368,20.335,40.704,0.052,1009.130,20.790,34.338,-0.609
774.929,0,-0.050,-0.004,-0.045,-0.074,-0.030,-0.181,-0.058,-0.056,-0.103,39.0824178,-75.8752698,-19.583,-0.011,0.003,0.104,18,0.208,0.151,-9.704,-0.081,0.083,0.047,-1391.000,501.000,4.000,-0.725,-0.689,-0.017,0.002,1008.370,20.335,40.688,0.023,1009.030,20.760,35.173,0.208
775.029,0,-0.068,-0.038,-0.059,-0.087,-0.128,-0.194,-0.044,-0.117,-0.112,39.0824178,-75.8752698,-19.587,-0.011,0.003,0.089,18,0.122,0.136,-9.697,-0.006,0.098,-0.087,-1359.000,554.000,51.000,-0.721,-0.692,-0.015,0.002,1008.364,20.335,40.735,0.062,1009.050,20.760,35.006,-0.008
775.129,0,-0.039,-0.021,0.013,-0.078,-0.121,-0.160,-0.043,-0.049,-0.053,39.0824178,-75.8752698,-19.587,-0.011,0.002,0.079,18,0.223,0.115,-9.754,-0.019,0.083,-0.045,-1365.000,509.000,8.000,-0.720,-0.694,-0.016,0.004,1008.363,20.339,40.747,0.062,1009.110,20.760,34.505,-0.492
775.229,0,-0.038,-0.025,-0.030,-0.080,-0.128,-0.180,-0.040,-0.068,-0.083,39.0824178,-75.8752697,-19.595,-0.011,0.010,0.060,18,0.136,0.108,-9.726,-0.028,0.004,-0.072,-1391.000,588.000,75.000,-0.717,-0.697,-0.013,0.002,1008.372,20.337,40.671,-0.035,1009.060,20.780,34.923,-0.125
775.329,0,-0.047,-0.038,-0.008,-0.062,-0.115,-0.179,0.038,0.009,-0.101,39.0824177,-75.8752697,-19.597,-0.022,0.009,0.047,18,0.208,0.244,-9.704,-0.026,-0.019,0.070,-1397.000,535.000,-1.000,-0.720,-0.694,-0.015,-0.001,1008.353,20.341,40.823,0.099,1009.070,20.770,34.839,-0.159
775.429,0,-0.057,-0.050,-0.068,-0.073,-0.094,-0.237,-0.049,0.011,-0.176,39.0824177,-75.8752697,-19.591,-0.022,0.009,0.044,18,0.172,0.101,-9.632,0.009,-0.043,-0.107,-1379.000,551.000,126.000,-0.716,-0.698,-0.011,0.000,1008.368,20.335,40.704,-0.028,1009.060,20.780,34.923,-0.109
775.529,0,-0.066,-0.049,-0.126,-0.066,-0.037,-0.233,-0.017,0.066,-0.082,39.0824177,-75.8752697,-19.590,-0.022,0.009,0.037,17,0.201,0.043,-9.726,0.072,-0.098,0.040,-1372.000,542.000,114.000,-0.718,-0.696,-0.007,0.003,1008.369,20.327,40.695,-0.049,1009.080,20.770,34.756,-0.276
775.629,0,-0.061,-0.031,-0.083,-0.009,0.004,-0.177,0.061,0.035,-0.116,39.0824177,-75.8752697,-19.579,-0.021,0.009,0.040,17,0.187,0.237,-9.690,-0.060,-0.026,0.100,-1340.000,536.000,47.000,-0.721,-0.693,-0.012,-0.001,1008.352,20.327,40.836,0.084,1009.010,20.770,35.340,0.384
775.729,0,-0.054,-0.008,-0.058,-0.026,-0.004,-0.183,-0.041,-0.030,-0.162,39.0824176,-75.8752696,-19.577,-0.031,0.017,0.036,18,0.122,0.122,-9.647,-0.026,0.040,-0.104,-1372.000,535.000,88.000,-0.718,-0.696,-0.012,-0.000,1008.353,20.337,40.827,0.072,1009.070,20.770,34.839,-0.042
775.829,0,-0.058,0.011,-0.008,-0.050,0.036,-0.103,-0.048,0.044,-0.038,39.0824176,-75.8752696,-19.574,-0.030,0.017,0.034,18,0.201,0.172,-9.769,-0.109,-0.040,0.028,-1372.000,572.000,153.000,-0.719,-0.695,-0.014,-0.002,1008.351,20.332,40.848,0.119,1009.080,20.780,34.756,-0.059
775.929,0,-0.078,0.020,-0.110,-0.108,-0.010,-0.161,-0.092,-0.047,-0.076,39.0824176,-75.8752696,-19.567,-0.029,0.017,0.035,17,0.165,0.036,-9.733,0.004,0.111,-0.058,-1385.000,547.000,116.000,-0.717,-0.697,-0.012,0.003,1008.377,20.333,40.629,-0.095,1009.140,20.770,34.255,-0.543
776.029,0,-0.093,0.015,-0.202,-0.065,-0.003,-0.171,0.006,0.006,-0.053,39.0824176,-75.8752696,-19.556,-0.028,0.017,0.042,17,0.172,0.122,-9.754,0.019,-0.055,-0.068,-1427.000,521.000,105.000,-0.714,-0.700,-0.010,0.002,1008.383,20.336,40.580,-0.148,1009.100,20.770,34.589,-0.175
776.129,0,-0.057,0.022,-0.113,-0.048,0.003,-0.134,-0.002,0.028,-0.075,39.0824176,-75.8752695,-19.556,-0.027,0.026,0.039,17,0.194,0.115,-9.733,-0.002,-0.028,-0.094,-1346.000,560.000,89.000,-0.711,-0.703,-0.010,0.002,1008.372,20.328,40.672,-0.058,1009.060,20.780,34.923,0.167
776.229,0,-0.053,0.025,-0.099,-0.029,0.019,-0.119,0.065,0.071,-0.007,39.0824175,-75.8752695,-19.550,-0.037,0.025,0.043,18,0.280,0.194,-9.797,0.051,-0.034,0.104,-1372.000,537.000,83.000,-0.715,-0.700,-0.012,0.003,1008.372,20.322,40.670,-0.051,1009.130,20.780,34.338,-0.401
776.329,0,-0.051,0.032,-0.104,-0.017,0.049,-0.141,0.025,0.094,-0.116,39.0824175,-75.8752695,-19.541,-0.034,0.024,0.052,18,0.244,0.172,-9.690,0.002,-0.156,0.023,-1327.000,548.000,97.000,-0.715,-0.699,-0.011,-0.000,1008.371,20.324,40.676,-0.052,1009.050,20.780,35.006,0.276
776.429,0,-0.052,0.042,-0.158,-0.041,0.045,-0.159,-0.069,0.003,-0.055,39.0824175,-75.8752695,-19.533,-0.032,0.023,0.058,17,0.129,0.093,-9.754,-0.083,-0.026,0.023,-1419.000,576.000,95.000,-0.716,-0.698,-0.010,-0.001,1008.382,20.330,40.585,-0.146,1009.150,20.780,34.171,-0.576
776.529,0,-0.053,0.049,-0.151,-0.018,0.044,-0.141,0.027,0.017,-0.081,39.0824175,-75.8752695,-19.524,-0.030,0.022,0.067,17,0.201,0.136,-9.726,0.081,0.040,-0.064,-1397.000,522.000,101.000,-0.714,-0.700,-0.011,0.003,1008.371,20.327,40.673,-0.051,1009.030,20.780,35.173,0.409
776.629,0,-0.051,0.047,-0.159,0.000,0.008,-0.153,0.021,-0.039,-0.120,39.0824174,-75.8752695,-19.518,-0.040,0.022,0.071,17,0.057,0.093,-9.690,0.064,-0.047,-0.232,-1340.000,543.000,176.000,-0.706,-0.708,-0.006,0.001,1008.374,20.329,40.655,-0.077,1009.180,20.780,33.921,-0.910
776.729,0,-0.038,0.041,-0.186,0.034,0.024,-0.144,0.046,0.038,-0.068,39.0824174,-75.8752695,-19.501,-0.038,0.020,0.086,18,0.108,0.151,-9.740,0.015,-0.066,-0.053,-1331.000,567.000,102.000,-0.704,-0.710,-0.006,-0.001,1008.377,20.338,40.624,-0.119,1009.120,20.770,34.422,-0.442
776.829,0,-0.029,0.044,-0.192,0.004,0.023,-0.125,-0.032,0.010,-0.062,39.0824174,-75.8752694,-19.494,-0.036,0.027,0.092,18,0.129,0.086,-9.747,-0.045,0.040,-0.164,-1373.000,524.000,133.000,-0.698,-0.716,-0.009,0.000,1008.375,20.331,40.646,-0.112,1009.120,20.780,34.422,-0.484
776.929,0,-0.030,0.045,-0.170,-0.000,0.027,-0.124,-0.002,0.016,-0.088,39.0824174,-75.8752694,-19.497,-0.033,0.025,0.087,17,0.172,0.180,-9.718,-0.068,0.021,0.053,-1365.000,535.000,95.000,-0.700,-0.714,-0.012,-0.001,1008.371,20.329,40.678,-0.073,1009.080,20.780,34.756,-0.059
777.029,0,-0.025,0.047,-0.200,0.025,0.029,-0.156,0.027,0.014,-0.096,39.0824174,-75.8752694,-19.493,-0.031,0.023,0.088,16,0.151,0.201,-9.711,0.036,-0.034,0.013,-1395.000,547.000,124.000,-0.700,-0.714,-0.011,-0.001,1008.379,20.341,40.614,-0.122,1009.080,20.790,34.756,-0.017
777.129,0,-0.033,0.033,-0.143,0.019,0.032,-0.133,-0.011,0.078,-0.068,39.0824173,-75.8752694,-19.484,-0.040,0.021,0.094,16,0.158,0.129,-9.740,0.026,-0.141,0.070,-1376.000,569.000,160.000,-0.703,-0.711,-0.008,-0.002,1008.377,20.338,40.624,-0.104,1009.100,20.770,34.589,-0.225
777.229,0,-0.032,0.035,-0.112,0.020,0.038,-0.135,0.011,0.037,-0.111,39.0824173,-75.8752693,-19.477,-0.037,0.028,0.097,17,0.165,0.151,-9.697,0.011,0.013,-0.051,-1392.000,524.000,108.000,-0.701,-0.713,-0.010,-0.000,1008.370,20.340,40.684,-0.044,1009.090,20.770,34.672,-0.084
777.329,0,-0.029,0.038,-0.105,0.020,0.022,-0.148,0.002,-0.040,-0.111,39.0824173,-75.8752693,-19.473,-0.034,0.026,0.095,17,0.115,0.151,-9.697,-0.011,0.066,0.228,-1385.000,540.000,65.000,-0.709,-0.705,-0.011,0.000,1008.371,20.344,40.680,-0.033,1009.060,20.780,34.923,0.150
777.429,0,-0.024,0.038,-0.125,0.021,0.015,-0.143,0.008,-0.008,-0.045,39.0824173,-75.8752693,-19.465,-0.032,0.024,0.097,18,0.158,0.194,-9.762,-0.030,0.019,-0.004,-1374.000,528.000,57.000,-0.709,-0.705,-0.013,-0.001,1008.376,20.345,40.633,-0.069,1009.100,20.780,34.589,-0.108
777.529,0,-0.022,0.043,-0.130,0.005,0.029,-0.105,-0.025,0.035,-0.009,39.0824173,-75.8752692,-19.457,-0.030,0.031,0.099,18,0.259,0.057,-9.797,0.079,0.021,0.079,-1326.000,533.000,-15.000,-0.712,-0.702,-0.011,0.005,1008.375,20.354,40.641,-0.059,1009.150,20.780,34.171,-0.568
777.629,0,-0.019,0.052,-0.124,0.048,0.052,-0.077,0.083,0.053,-0.031,39.0824172,-75.8752692,-19.447,-0.038,0.029,0.103,16,0.237,0.151,-9.776,0.098,-0.098,0.032,-1381.000,511.000,0.000,-0.713,-0.701,-0.009,0.004,1008.378,20.336,40.618,-0.063,1009.100,20.770,34.589,-0.008
777.729,0,-0.019,0.068,-0.114,0.020,0.065,-0.058,-0.018,0.041,-0.032,39.0824171,-75.8752691,-19.432,-0.047,0.037,0.110,16,0.201,0.065,-9.776,-0.034,-0.064,-0.038,-1383.000,558.000,36.000,-0.712,-0.703,-0.009,0.003,1008.381,20.344,40.596,-0.065,1009.120,20.780,34.422,-0.134
777.829,0,-0.016,0.083,-0.126,0.057,0.065,-0.116,0.065,0.028,-0.118,39.0824171,-75.8752690,-19.423,-0.044,0.044,0.111,17,0.165,0.151,-9.690,0.064,-0.051,-0.045,-1375.000,524.000,52.000,-0.710,-0.704,-0.008,0.002,1008.385,20.340,40.560,-0.081,1009.080,20.780,34.756,0.234
777.929,0,-0.005,0.100,-0.060,0.053,0.104,-0.076,0.019,0.077,-0.059,39.0824171,-75.8752690,-19.422,-0.042,0.042,0.105,18,0.259,0.115,-9.747,0.006,-0.036,0.092,-1405.000,532.000,121.000,-0.713,-0.701,-0.010,0.003,1008.369,20.335,40.696,0.050,1009.180,20.790,33.921,-0.651
778.029,0,-0.020,0.110,-0.062,-0.016,0.066,-0.073,-0.051,-0.000,-0.039,39.0824170,-75.8752690,-19.414,-0.051,0.041,0.107,17,0.208,0.115,-9.769,-0.121,0.030,-0.009,-1350.000,552.000,122.000,-0.713,-0.701,-0.014,0.001,1008.376,20.339,40.638,-0.011,1009.070,20.770,34.839,0.250
778.129,0,-0.038,0.077,-0.028,-0.026,0.055,-0.066,-0.035,0.038,-0.089,39.0824170,-75.8752689,-19.403,-0.048,0.048,0.111,17,0.208,0.101,-9.718,-0.006,-0.077,-0.079,-1393.000,545.000,94.000,-0.710,-0.704,-0.011,0.001,1008.376,20.339,40.639,-0.006,1009.100,20.780,34.589,0.034
778.229,0,-0.044,0.071,-0.011,-0.027,0.046,-0.080,-0.001,-0.015,-0.118,39.0824170,-75.8752689,-19.402,-0.046,0.047,0.104,18,0.180,0.108,-9.690,0.030,0.043,-0.124,-1370.000,578.000,120.000,-0.706,-0.708,-0.011,0.003,1008.372,20.329,40.671,0.025,1009.100,20.780,34.589,0.000
778.329,0,-0.055,0.072,0.019,-0.044,0.024,-0.070,-0.055,-0.054,-0.041,39.0824169,-75.8752688,-19.396,-0.054,0.054,0.103,18,0.129,0.029,-9.769,-0.030,0.043,-0.009,-1362.000,560.000,96.000,-0.706,-0.709,-0.010,0.004,1008.364,20.332,40.738,0.092,1009.040,20.770,35.090,0.510
778.429,0,-0.069,0.071,0.017,-0.032,0.025,-0.084,0.024,0.016,-0.075,39.0824168,-75.8752688,-19.398,-0.063,0.052,0.095,17,0.151,0.172,-9.733,-0.043,-0.066,0.070,-1348.000,543.000,55.000,-0.708,-0.706,-0.010,-0.000,1008.367,20.337,40.710,0.059,1009.050,20.780,35.006,0.384
778.529,0,-0.077,0.075,-0.033,-0.036,0.050,-0.133,-0.017,0.066,-0.103,39.0824168,-75.8752688,-19.400,-0.061,0.049,0.086,17,0.244,0.108,-9.704,0.002,-0.023,0.098,-1363.000,520.000,165.000,-0.712,-0.703,-0.011,0.002,1008.377,20.338,40.624,-0.024,1009.090,20.780,34.672,0.150
778.629,0,-0.078,0.076,-0.049,-0.014,0.021,-0.130,0.020,-0.025,-0.075,39.0824168,-75.8752688,-19.394,-0.059,0.047,0.085,17,0.115,0.194,-9.733,-0.028,-0.017,0.051,-1414.000,515.000,168.000,-0.713,-0.701,-0.011,-0.001,1008.373,20.334,40.659,0.015,1009.090,20.780,34.672,0.083
778.729,0,-0.080,0.076,-0.051,-0.022,0.039,-0.111,-0.021,0.044,-0.059,39.0824167,-75.8752687,-19.386,-0.067,0.052,0.086,17,0.251,0.129,-9.747,0.000,0.026,0.030,-1359.000,567.000,78.000,-0.714,-0.700,-0.013,0.002,1008.373,20.339,40.662,0.021,1009.040,20.770,35.090,0.501
778.829,0,-0.084,0.071,-0.008,-0.038,-0.001,-0.132,-0.033,-0.033,-0.139,39.0824167,-75.8752687,-19.382,-0.063,0.048,0.083,18,0.215,0.086,-9.668,0.000,0.079,-0.075,-1347.000,565.000,38.000,-0.712,-0.702,-0.013,0.005,1008.364,20.338,40.733,0.100,1009.120,20.780,34.422,-0.200
778.929,0,-0.099,0.046,0.026,-0.083,-0.071,-0.087,-0.073,-0.081,-0.041,39.0824167,-75.8752686,-19.378,-0.060,0.054,0.079,18,0.093,0.050,-9.769,-0.075,0.006,-0.053,-1366.000,564.000,122.000,-0.710,-0.704,-0.011,0.002,1008.361,20.337,40.757,0.122,1009.050,20.780,35.006,0.468
779.029,0,3.022,0.185,1.320,12.928,0.638,6.214,14.318,0.763,7.158,39.0824166,-75.8752686,-19.372,-0.067,0.050,0.077,18,1.156,13.748,-17.411,0.445,-0.109,0.113,-1384.000,557.000,45.000,-0.714,-0.700,0.009,0.014,1008.368,20.346,40.702,0.065,1009.010,20.790,35.340,0.793
779.129,0,1.851,0.144,0.962,12.055,0.939,10.053,1.375,2.749,34.426,39.0824166,-75.8752686,-19.365,-0.063,0.046,0.076,18,2.916,-0.215,-44.246,0.004,-0.036,0.322,-1213.000,458.000,-32.000,-0.725,-0.689,0.010,0.013,1008.346,20.348,40.886,0.248,1009.050,20.780,35.006,0.459
779.229,0,2.624,0.191,2.575,11.876,0.306,17.611,2.252,-2.616,35.566,39.0824165,-75.8752684,-19.410,-0.071,0.060,0.024,17,-2.241,0.718,-45.446,0.038,0.034,-0.023,-1395.000,516.000,-416.000,-0.724,-0.689,0.011,0.015,1008.272,20.345,41.503,0.866,1009.020,20.780,35.256,0.718
779.329,0,4.091,0.268,6.554,11.937,1.093,27.491,3.094,2.575,34.543,39.0824159,-75.8752690,-19.494,-0.133,0.003,-0.068,12,2.722,1.516,-44.426,-0.064,-0.070,0.390,-1631.000,621.000,-272.000,-0.737,-0.675,0.011,0.010,1008.141,20.342,42.601,1.958,1008.730,20.780,37.678,3.123
779.429,0,6.030,0.322,13.014,13.369,0.093,37.397,7.378,-2.100,33.170,39.0824152,-75.8752694,-19.096,-0.205,-0.035,0.323,11,-1.128,6.472,-43.162,-0.049,0.068,0.209,-1614.000,413.000,104.000,-0.744,-0.668,0.007,0.011,1008.001,20.345,43.771,3.120,1008.720,20.780,37.762,3.165
779.529,0,7.314,-0.104,21.562,9.004,-1.940,47.300,-2.952,-3.913,37.390,39.0824153,-75.8752690,-18.024,-0.189,-0.004,1.390,17,-3.807,-4.525,-47.084,0.081,-0.049,-1.123,4198.000,-3890.000,-215.000,-0.706,-0.708,0.011,0.012,1007.719,20.338,46.123,5.474,1008.390,20.780,40.518,5.870
779.629,0,7.212,-0.787,29.187,7.925,-2.134,51.252,3.881,-0.927,34.202,39.0824154,-75.8752686,-16.568,-0.173,0.027,2.840,15,-0.625,2.370,-44.124,0.015,0.038,0.232,-2509.000,1107.000,-224.000,-0.714,-0.700,0.010,0.014,1007.589,20.346,47.213,6.559,1008.160,20.780,42.439,7.784
779.729,0,6.451,-1.009,36.019,5.821,-1.052,56.827,2.082,0.676,39.657,39.0824155,-75.8752681,-14.724,-0.158,0.067,4.680,15,0.532,0.374,-49.511,-0.002,-0.087,-0.147,-2456.000,1082.000,-228.000,-0.709,-0.705,0.013,0.011,1007.301,20.334,49.617,8.958,1007.920,20.780,44.445,9.722
779.829,0,5.065,-0.851,42.087,3.226,-0.856,60.397,0.456,-0.426,38.183,39.0824158,-75.8752676,-12.514,-0.120,0.107,6.886,15,-0.625,-1.042,-47.982,-0.032,-0.011,-0.004,-2484.000,1163.000,-275.000,-0.709,-0.705,0.013,0.010,1007.165,20.340,50.755,10.078,1007.780,20.770,45.614,10.925
779.929,1,3.488,-0.417,49.497,1.629,0.438,66.634,0.472,1.034,40.624,39.0824161,-75.8752669,-9.882,-0.087,0.168,9.518,12,0.330,-1.494,-50.424,0.075,-0.094,0.168,-2524.000,1224.000,-293.000,-0.714,-0.699,0.019,0.009,1006.817,20.340,53.665,12.988,1007.300,20.780,49.627,14.938
780.029,1,2.435,0.446,59.034,1.766,1.719,72.197,1.475,1.363,39.858,39.0824165,-75.8752662,-6.804,-0.042,0.228,12.596,13,-0.445,0.287,-49.705,-0.153,-0.228,0.435,-2457.000,1337.000,-301.000,-0.729,-0.684,0.021,-0.005,1006.308,20.337,57.926,17.249,1006.970,20.780,52.386,17.698
780.129,1,1.072,0.459,35.903,1.181,1.908,63.544,0.018,2.109,38.700,39.0824169,-75.8752653,-3.356,0.002,0.306,16.044,14,-0.826,-0.833,-48.542,-0.070,-0.211,0.513,-2459.000,1466.000,-191.000,-0.746,-0.665,0.027,-0.015,1006.013,20.327,60.389,19.712,1006.460,20.780,56.652,21.963
780.229,1,0.795,0.736,38.573,1.174,2.762,68.398,0.810,4.128,41.690,39.0824173,-75.8752644,0.567,0.047,0.384,19.967,12,-0.381,-0.646,-51.666,0.062,-0.281,0.292,-2391.000,1624.000,-278.000,-0.756,-0.654,0.039,-0.023,1005.393,20.338,65.586,24.909,1005.930,20.780,61.087,26.398
780.329,1,0.806,1.376,47.647,1.535,4.375,76.277,1.615,5.537,43.269,39.0824174,-75.8752636,4.890,0.058,0.453,24.290,13,-0.266,0.180,-53.390,-0.051,-0.234,0.386,-2359.000,1788.000,-266.000,-0.767,-0.639,0.046,-0.033,1005.027,20.328,68.644,27.967,1005.380,20.770,65.691,31.003
780.429,1,1.020,2.558,61.364,2.003,6.467,82.946,1.721,6.200,43.156,39.0824173,-75.8752629,9.651,0.047,0.514,29.051,12,-0.223,-0.223,-53.354,0.072,-0.119,0.079,-2333.000,1891.000,-233.000,-0.770,-0.635,0.052,-0.034,1004.277,20.334,74.931,34.254,1004.770,20.780,70.800,36.112
780.529,1,1.366,4.440,74.073,2.510,9.753,83.464,1.930,8.967,43.168,39.0824168,-75.8752626,14.850,-0.009,0.540,34.250,13,0.963,-0.912,-53.749,0.062,-0.285,0.200,-2311.000,2037.000,-225.000,-0.775,-0.627,0.065,-0.042,1003.863,20.329,78.398,37.721,1004.110,20.780,76.331,41.643
780.629,1,1.775,6.755,84.945,3.221,12.147,80.317,2.566,8.522,43.543,39.0824158,-75.8752627,20.487,-0.120,0.531,39.887,13,0.381,-0.488,-54.087,0.051,-0.040,0.183,-2290.000,2105.000,-328.000,-0.781,-0.619,0.068,-0.041,1002.924,20.328,86.276,45.599,1003.370,20.770,82.536,47.847
780.729,1,2.109,9.142,91.583,3.405,15.160,76.615,2.044,10.643,44.627,39.0824144,-75.8752633,26.522,-0.275,0.479,45.922,13,1.975,-1.444,-55.452,-0.015,-0.026,0.111,-2288.000,2087.000,-272.000,-0.784,-0.615,0.068,-0.043,1002.452,20.327,90.239,49.562,1002.620,20.780,88.828,54.139
780.829,1,2.447,11.271,99.883,4.396,15.995,76.763,3.217,8.539,44.216,39.0824126,-75.8752644,32.984,-0.475,0.384,52.384,14,-0.029,-0.201,-54.791,0.075,-0.060,-0.100,-2270.000,2108.000,-330.000,-0.781,-0.619,0.073,-0.042,1001.414,20.333,98.950,58.273,1001.830,20.780,95.460,60.771
780.929,1,3.009,12.837,108.125,5.469,16.522,78.639,3.454,8.308,44.044,39.0824102,-75.8752664,39.891,-0.742,0.211,59.291,15,-0.330,-0.532,-54.597,0.113,-0.030,-0.064,-2227.000,2053.000,-237.000,-0.779,-0.621,0.078,-0.038,1000.866,20.334,103.556,62.879,1000.990,20.770,102.516,67.827
781.029,1,3.898,14.263,120.636,7.128,17.594,83.505,4.294,8.777,44.202,39.0824074,-75.8752690,47.219,-1.052,-0.014,66.619,14,0.050,-0.675,-54.884,0.156,-0.043,-0.283,-2227.000,2053.000,-237.000,-0.771,-0.631,0.085,-0.032,999.691,20.333,113.437,72.760,1000.040,20.780,110.503,75.814
781.129,1,1.093,6.501,95.753,6.228,15.044,74.197,3.759,9.125,44.141,39.0824040,-75.8752722,54.991,-1.430,-0.291,74.391,13,0.510,-1.042,-54.834,-0.038,0.032,-0.341,-2223.000,1974.000,-264.000,-0.760,-0.644,0.083,-0.031,999.074,20.334,118.629,77.952,999.070,20.780,118.663,83.974
781.229,1,0.724,5.501,101.919,6.835,15.378,80.029,5.526,8.365,44.399,39.0824004,-75.8752762,63.224,-1.830,-0.637,82.624,14,-0.079,0.115,-55.128,0.126,-0.011,-0.511,-2204.000,1943.000,-213.000,-0.743,-0.663,0.088,-0.025,997.727,20.333,129.971,89.294,998.020,20.780,127.504,92.815
781.329,1,1.182,6.412,114.816,8.089,16.474,88.101,6.184,8.475,43.902,39.0823965,-75.8752810,71.917,-2.263,-1.052,91.317,15,-0.079,0.294,-54.726,0.092,-0.043,-0.473,-2178.000,1893.000,-228.000,-0.727,-0.680,0.093,-0.021,997.040,20.341,135.765,95.088,996.800,20.770,137.786,103.097
781.429,1,2.175,8.270,134.364,9.332,17.746,95.447,6.074,9.310,43.904,39.0823923,-75.8752865,81.014,-2.729,-1.528,100.414,15,0.022,0.661,-54.848,-0.096,-0.128,-0.354,-2144.000,1895.000,-200.000,-0.714,-0.693,0.095,-0.027,995.501,20.334,148.747,108.070,995.660,20.780,147.403,112.714
781.529,1,3.281,10.169,152.391,10.046,18.037,95.094,5.947,9.204,42.956,39.0823878,-75.8752929,90.593,-3.228,-2.082,109.993,15,-0.524,0.611,-53.886,0.002,-0.109,-0.266,-2194.000,1810.000,-215.000,-0.705,-0.702,0.099,-0.029,994.703,20.332,155.481,114.804,994.540,20.770,156.859,122.170
781.629,1,3.906,11.156,168.548,9.802,17.483,90.164,5.405,9.623,42.465,39.0823832,-75.8753001,100.558,-3.739,-2.705,119.958,13,-0.510,0.783,-53.419,-0.128,-0.087,-0.522,-2231.000,1747.000,-177.000,-0.685,-0.721,0.099,-0.034,993.168,20.331,168.456,127.778,993.270,20.780,167.593,132.904
781.729,1,3.613,10.893,178.835,8.315,16.055,83.403,3.895,8.788,42.806,39.0823783,-75.8753082,110.996,-4.283,-3.406,130.396,13,-0.869,-0.560,-53.476,-0.053,0.075,-0.543,-2240.000,1693.000,-212.000,-0.666,-0.739,0.095,-0.031,992.337,20.329,175.483,134.806,991.960,20.780,178.676,143.987
781.829,1,2.642,10.062,191.197,7.245,15.988,80.640,3.893,9.775,40.990,39.0823732,-75.8753172,121.857,-4.849,-4.184,141.257,13,0.567,0.122,-51.875,-0.075,0.030,-0.452,-2302.000,1609.000,-178.000,-0.649,-0.755,0.092,-0.030,990.624,20.329,189.995,149.317,990.650,20.780,189.771,155.082
781.929,1,1.536,9.305,201.956,6.548,15.479,79.451,3.545,8.242,40.522,39.0823676,-75.8753270,133.140,-5.471,-5.032,152.540,13,-0.481,-0.539,-51.120,0.021,0.055,-0.637,-2351.000,1523.000,-268.000,-0.625,-0.775,0.092,-0.024,989.723,20.332,197.628,156.951,988.910,20.780,204.527,169.838
782.029,1,0.836,9.461,219.764,7.354,18.657,83.450,4.550,11.437,40.628,39.0823618,-75.8753376,144.807,-6.115,-5.950,164.207,14,2.248,1.551,-51.846,-0.068,-0.009,-0.543,-2427.000,1434.000,-212.000,-0.603,-0.792,0.090,-0.024,987.573,20.334,215.878,175.201,987.500,20.780,216.499,181.810
782.129,1,-3.342,0.654,198.870,5.812,15.763,74.923,2.771,9.855,37.105,39.0823556,-75.8753490,156.921,-6.803,-6.936,176.321,14,1.343,-0.603,-47.996,0.111,-0.087,-0.567,-2442.000,1336.000,-191.000,-0.581,-0.808,0.098,-0.022,986.647,20.344,223.750,183.073,985.980,20.780,229.422,194.733
782.229,1,-4.341,-0.878,208.781,5.778,16.113,80.101,3.434,9.514,35.528,39.0823491,-75.8753610,169.450,-7.525,-7.974,188.850,13,0.840,0.057,-46.444,0.026,-0.043,-0.537,-2480.000,1293.000,-143.000,-0.558,-0.823,0.101,-0.020,984.638,20.330,240.845,200.168,984.440,20.790,242.530,207.841
782.329,1,-4.553,-0.385,228.546,6.107,17.487,88.072,3.574,10.157,34.590,39.0823422,-75.8753736,182.371,-8.291,-9.064,201.771,13,1.286,0.022,-45.669,0.130,-0.047,-0.460,-2486.000,1264.000,-171.000,-0.539,-0.835,0.108,-0.016,982.547,20.337,258.667,217.990,982.860,20.780,255.996,221.307
782.429,1,-4.398,0.970,249.780,6.830,17.989,92.009,4.719,8.410,32.676,39.0823351,-75.8753868,195.599,-9.079,-10.207,214.999,12,-0.445,0.036,-43.564,0.141,0.015,-0.631,-2520.000,1197.000,-246.000,-0.513,-0.851,0.114,-0.008,981.525,20.327,267.385,226.708,981.280,20.770,269.480,234.791
782.529,1,-4.297,1.970,273.835,6.659,17.024,91.071,3.641,7.625,31.069,39.0823276,-75.8754007,209.159,-9.912,-11.409,228.559,11,-0.237,-1.185,-41.725,0.047,0.019,-0.854,-2508.000,1144.000,-183.000,-0.476,-0.872,0.115,-0.001,979.322,20.336,286.214,245.537,979.480,20.780,284.863,250.174
782.629,1,-4.564,1.609,291.076,7.032,15.315,81.524,5.311,8.146,29.073,39.0823197,-75.8754159,223.239,-10.789,-12.724,242.639,12,-0.596,0.445,-40.073,0.096,-0.013,-0.776,-2518.000,1107.000,-160.000,-0.442,-0.889,0.120,0.005,978.191,20.332,295.889,255.212,977.760,20.790,299.583,264.894
782.729,1,-5.225,-0.187,307.933,6.671,13.098,73.944,4.371,7.415,28.738,39.0823115,-75.8754318,237.580,-11.699,-14.100,256.980,10,-0.603,-0.302,-39.491,-0.096,-0.017,-0.626,-2613.000,989.000,-142.000,-0.414,-0.903,0.116,0.006,975.900,20.339,315.525,274.848,976.060,20.780,314.153,279.464
782.829,1,-6.462,-2.824,319.285,5.117,10.946,65.671,2.402,6.206,27.082,39.0823030,-75.8754485,252.157,-12.643,-15.545,271.557,11,0.151,-2.313,-37.416,0.036,0.026,-0.573,-2682.000,950.000,-207.000,-0.388,-0.914,0.117,0.011,974.803,20.329,324.943,284.266,974.450,20.780,327.971,293.282
782.929,1,-8.092,-5.333,334.645,4.131,10.721,62.243,2.327,6.947,25.264,39.0822942,-75.8754660,266.982,-13.620,-17.059,286.382,11,0.876,-1.602,-35.785,0.053,-0.021,-0.614,-2767.000,901.000,-238.000,-0.360,-0.925,0.119,0.015,972.568,20.337,344.148,303.471,972.640,20.780,343.527,308.838
783.029,1,-9.396,-6.780,347.343,4.851,12.474,57.866,3.542,8.122,23.076,39.0822850,-75.8754841,282.048,-14.641,-18.626,301.448,12,0.819,0.797,-34.040,-0.064,-0.013,-0.405,-2828.000,855.000,-153.000,-0.341,-0.933,0.116,0.015,971.322,20.329,354.871,314.194,970.760,20.770,359.709,325.020
783.129,1,-12.893,-14.163,341.810,3.805,9.847,55.258,3.768,5.471,22.345,39.0822756,-75.8755027,297.347,-15.684,-20.235,316.747,11,-1.121,-1.085,-32.797,0.049,-0.051,-0.616,-2874.000,776.000,-172.000,-0.312,-0.943,0.119,0.017,968.874,20.328,375.973,335.296,968.980,20.780,375.055,340.366
783.229,1,-14.021,-16.124,350.279,3.819,9.900,58.217,3.142,6.735,20.378,39.0822659,-75.8755220,312.993,-16.761,-21.905,332.393,11,0.323,0.057,-31.087,-0.015,0.036,-0.594,-2956.000,758.000,-193.000,-0.284,-0.952,0.117,0.022,967.714,20.333,385.985,345.308,967.120,20.770,391.114,356.425
783.329,1,-14.556,-16.770,368.406,4.543,10.345,63.948,4.472,6.078,20.002,39.0822561,-75.8755419,328.836,-17.849,-23.627,348.236,11,-1.322,0.402,-30.721,-0.045,-0.053,-0.471,-3002.000,747.000,-156.000,-0.261,-0.958,0.115,0.022,965.346,20.323,406.451,365.774,965.240,20.770,407.371,372.682
783.429,1,-14.827,-17.121,387.781,4.975,9.660,66.585,3.682,3.777,17.797,39.0822461,-75.8755626,344.952,-18.959,-25.418,364.352,12,-1.465,-1.508,-28.028,0.004,0.077,-0.565,-3060.000,712.000,-195.000,-0.234,-0.965,0.113,0.029,964.126,20.322,417.019,376.342,963.520,20.780,422.267,387.578
783.529,1,-15.240,-17.889,411.196,4.790,9.298,67.195,3.078,5.929,17.285,39.0822359,-75.8755838,361.241,-20.092,-27.252,380.641,12,0.000,-0.266,-27.905,0.168,-0.021,-0.690,-3147.000,666.000,-140.000,-0.200,-0.972,0.121,0.034,961.709,20.320,437.974,397.297,961.470,20.760,440.050,405.361
783.629,1,-16.187,-19.461,429.408,4.016,8.249,59.660,2.604,5.645,13.925,39.0822255,-75.8756053,377.751,-21.246,-29.112,397.151,12,0.431,0.323,-24.529,-0.070,0.072,-0.482,-3242.000,648.000,-214.000,-0.177,-0.977,0.116,0.039,960.429,20.323,449.089,408.412,959.660,20.770,455.776,421.087
783.729,1,-17.539,-22.062,448.737,3.954,6.091,54.075,3.578,3.776,14.092,39.0822150,-75.8756274,394.419,-22.412,-31.025,413.819,11,-1.257,-1.027,-24.407,-0.045,-0.066,-0.394,-3259.000,652.000,-144.000,-0.158,-0.980,0.113,0.038,957.908,20.332,471.025,430.347,957.690,20.780,472.919,438.230
783.829,1,-18.910,-25.222,462.320,3.921,4.829,46.080,3.198,3.845,12.607,39.0822044,-75.8756500,411.255,-23.589,-32.980,430.655,13,-1.142,-0.948,-22.921,0.068,-0.113,-0.592,-3389.000,648.000,-182.000,-0.128,-0.984,0.116,0.036,956.651,20.334,481.972,441.295,955.850,20.770,488.958,454.269
783.929,1,-20.155,-28.152,480.164,4.117,4.601,42.712,3.057,3.935,11.754,39.0821935,-75.8756730,428.211,-24.799,-34.970,447.611,14,-0.639,-0.797,-22.109,0.021,0.149,-0.671,-3476.000,626.000,-151.000,-0.096,-0.988,0.115,0.048,954.094,20.329,504.284,463.607,953.820,20.770,506.681,471.992
784.029,1,-20.827,-30.380,493.913,6.004,5.591,38.798,4.654,4.545,11.887,39.0821824,-75.8756964,445.300,-26.031,-36.995,464.700,12,-1.745,-0.180,-22.583,0.040,0.141,-0.667,-3533.000,607.000,-162.000,-0.064,-0.990,0.115,0.059,952.804,20.337,515.559,474.882,951.810,20.780,524.259,489.571
784.129,1,-24.367,-35.272,497.578,4.624,3.776,39.588,1.679,2.022,10.737,39.0821712,-75.8757202,462.527,-27.275,-39.054,481.927,12,1.027,-2.895,-20.486,0.126,0.083,-0.503,-3575.000,607.000,-237.000,-0.039,-0.990,0.119,0.066,950.293,20.320,537.548,496.871,950.020,20.770,539.939,505.250
784.229,1,-25.536,-37.272,507.127,4.327,3.475,40.442,2.083,3.050,3.097,39.0821598,-75.8757444,479.924,-28.540,-41.148,499.324,15,0.029,0.007,-13.425,-0.032,0.175,-0.482,-3634.000,563.000,-148.000,-0.016,-0.990,0.116,0.078,949.075,20.319,548.227,507.550,948.080,20.770,556.960,522.271
784.329,2,-26.235,-38.839,524.542,4.013,2.672,41.694,1.506,0.623,-1.316,39.0821484,-75.8757691,497.389,-29.806,-43.285,516.789,15,-1.200,-0.891,-8.519,-0.034,-0.053,-0.548,-3740.000,579.000,-202.000,0.006,-0.996,0.088,0.018,946.546,20.347,570.436,529.759,946.260,20.780,572.954,538.265
784.429,2,-27.044,-40.713,546.408,2.780,0.880,42.084,-0.250,-1.127,-4.355,39.0821368,-75.8757938,515.037,-31.094,-45.423,534.437,15,0.625,-2.061,-5.143,0.087,0.030,-0.722,-3833.000,572.000,-190.000,0.042,-0.995,0.091,0.022,944.068,20.329,592.253,551.576,944.340,20.770,589.854,555.165
784.529,2,-28.474,-43.224,565.046,0.884,-0.169,35.753,-0.841,1.103,-9.341,39.0821254,-75.8758189,532.774,-32.359,-47.594,552.174,15,0.711,1.113,-0.632,0.002,0.002,-0.573,-3858.000,642.000,-139.000,0.071,-0.993,0.091,0.025,942.797,20.334,603.459,562.782,942.340,20.760,607.487,572.798
784.629,2,-30.490,-46.376,585.601,0.055,-1.912,27.995,1.067,-0.195,-12.937,39.0821139,-75.8758441,550.470,-33.636,-49.775,569.870,16,-1.221,0.122,3.074,-0.060,-0.040,-0.545,-3915.000,642.000,-93.000,0.098,-0.991,0.087,0.026,940.157,20.329,626.768,586.091,940.280,20.770,625.681,590.992
784.729,2,-32.802,-50.093,601.201,-1.366,-3.844,17.247,-0.371,-1.257,-13.868,39.0821025,-75.8758692,568.024,-34.902,-51.947,587.424,16,0.309,-0.438,4.231,0.013,0.100,-0.580,-4027.000,641.000,-129.000,0.126,-0.988,0.087,0.033,938.533,20.335,641.139,600.462,937.860,20.770,647.096,612.407
784.829,2,-35.208,-54.139,619.892,-2.146,-5.967,10.531,-0.278,-2.575,-13.818,39.0820911,-75.8758943,585.455,-36.167,-54.118,604.855,16,0.575,-1.731,4.410,-0.062,0.092,-0.411,-4129.000,680.000,-101.000,0.146,-0.985,0.084,0.040,935.731,20.341,665.971,625.294,935.720,20.770,666.071,631.382
784.929,2,-36.942,-57.890,632.137,-0.481,-5.821,0.029,2.087,-0.829,-16.129,39.0820798,-75.8759193,602.729,-37.422,-56.282,622.129,16,-2.306,-0.496,6.278,0.141,-0.117,-0.680,-4149.000,715.000,-51.000,0.180,-0.979,0.089,0.036,934.376,20.328,678.007,637.330,933.810,20.770,683.035,648.347
785.029,2,-38.273,-60.860,647.406,-1.269,-5.274,-5.157,-0.559,-0.781,-15.008,39.0820687,-75.8759442,619.845,-38.654,-58.436,639.245,16,0.345,0.323,5.265,-0.023,-0.196,-0.594,-4199.000,802.000,-75.000,0.210,-0.974,0.085,0.029,931.884,20.331,700.174,659.497,932.000,20.770,699.138,664.449
785.129,2,-39.299,-60.968,662.083,-1.434,-5.298,-0.683,1.215,-1.872,-15.262,39.0820576,-75.8759689,636.756,-39.886,-60.573,656.156,16,-0.840,-1.429,5.653,-0.068,0.092,-0.467,-4237.000,850.000,-40.000,0.232,-0.969,0.082,0.036,930.735,20.345,710.404,669.727,930.370,20.760,713.661,678.972
785.229,2,-40.253,-62.412,676.097,-1.508,-5.461,1.000,0.627,-0.383,-15.678,39.0820467,-75.8759935,653.498,-41.096,-62.702,672.898,16,-1.006,0.165,5.825,0.004,-0.043,-0.428,-4338.000,849.000,-48.000,0.253,-0.963,0.081,0.036,928.300,20.334,732.130,691.453,928.270,20.770,732.402,697.713
785.329,2,-41.303,-64.481,687.812,-1.377,-5.979,0.822,1.081,-1.353,-15.517,39.0820359,-75.8760178,670.082,-42.295,-64.804,689.482,16,-0.840,-0.919,5.832,0.083,-0.034,-0.611,-4360.000,932.000,-50.000,0.282,-0.955,0.083,0.036,927.001,20.329,743.745,703.068,926.440,20.760,748.761,714.072
785.429,2,-42.561,-67.111,704.323,-2.053,-6.839,3.461,-0.971,-2.141,-14.913,39.0820251,-75.8760420,686.474,-43.494,-66.898,705.874,16,1.429,-0.438,5.416,0.017,-0.055,-0.622,-4398.000,1020.000,-28.000,0.312,-0.946,0.082,0.035,924.550,20.323,765.682,725.005,924.470,20.770,766.402,731.713
785.529,2,-44.126,-70.082,720.236,-2.540,-6.959,5.390,-0.519,-1.003,-14.644,39.0820143,-75.8760661,702.686,-44.693,-68.984,722.086,16,0.359,0.158,4.949,-0.040,0.132,-0.533,-4482.000,1067.000,7.000,0.337,-0.937,0.081,0.044,923.324,20.329,776.673,735.996,923.190,20.770,777.879,743.190
785.629,2,-45.810,-73.040,739.701,-2.623,-7.071,7.446,-0.070,-1.678,-15.164,39.0820035,-75.8760901,718.754,-45.892,-71.060,738.154,16,0.338,-0.618,5.567,-0.104,0.104,-0.535,-4520.000,1126.000,-38.000,0.361,-0.928,0.077,0.053,921.248,20.325,795.317,754.640,921.120,20.760,796.469,761.780
785.729,2,-47.328,-75.717,756.013,-2.161,-6.456,5.057,0.439,-1.096,-14.831,39.0819929,-75.8761141,734.721,-47.069,-73.137,754.121,14,-0.395,-0.603,5.107,-0.015,0.115,-0.577,-4553.000,1129.000,-1.000,0.387,-0.917,0.076,0.061,920.009,20.327,806.458,765.781,919.420,20.770,811.761,777.072
785.829,2,-48.481,-77.956,774.622,-1.156,-5.562,2.893,1.057,-0.837,-14.811,39.0819822,-75.8761378,750.428,-48.257,-75.187,769.828,16,-0.934,-0.984,4.999,-0.138,-0.053,-0.445,-4639.000,1262.000,-24.000,0.407,-0.909,0.068,0.063,917.748,20.317,826.827,786.150,917.720,20.770,827.076,792.387
785.929,2,-49.482,-79.750,787.563,-1.134,-4.097,-2.655,-0.012,0.037,-14.405,39.0819717,-75.8761615,766.020,-49.423,-77.238,785.420,16,-0.804,0.345,4.511,0.066,-0.032,-0.605,-4630.000,1326.000,10.000,0.435,-0.896,0.068,0.062,916.584,20.323,837.319,796.642,915.980,20.760,842.774,808.085
786.029,2,-50.728,-81.514,803.277,-1.573,-4.236,-5.925,-0.496,-1.345,-14.382,39.0819611,-75.8761851,781.498,-50.599,-79.280,800.898,16,0.589,-0.065,4.755,0.049,-0.047,-0.597,-4683.000,1359.000,-8.000,0.462,-0.882,0.067,0.061,914.345,20.313,857.544,816.867,914.210,20.760,858.768,824.080
786.129,2,-51.432,-81.615,818.676,-1.824,-4.123,-1.033,-0.529,-0.408,-14.653,39.0819506,-75.8762086,796.846,-51.765,-81.314,816.246,16,-0.194,0.532,4.856,0.072,-0.070,-0.654,-4689.000,1497.000,79.000,0.491,-0.867,0.067,0.058,913.256,20.320,867.400,826.723,912.650,20.770,872.886,838.197
786.229,2,-52.325,-82.899,831.947,-2.122,-4.341,0.672,-0.619,-0.466,-14.488,39.0819401,-75.8762319,812.050,-52.931,-83.330,831.450,16,-0.108,0.582,4.705,0.036,0.021,-0.454,-4743.000,1542.000,20.000,0.510,-0.855,0.068,0.060,911.065,20.316,887.249,846.572,911.020,20.770,887.658,852.969
786.329,2,-53.395,-84.726,842.563,-1.983,-4.610,0.479,0.890,-0.397,-14.265,39.0819298,-75.8762551,827.109,-54.074,-85.337,846.509,16,-0.812,-0.790,4.417,-0.038,0.028,-0.554,-4766.000,1629.000,59.000,0.534,-0.841,0.065,0.064,909.971,20.321,897.174,856.497,909.350,20.760,902.815,868.126
786.429,2,-54.616,-87.008,857.258,-2.143,-5.151,2.510,0.016,-1.044,-14.252,39.0819195,-75.8762783,842.051,-55.218,-87.344,861.451,16,0.144,-0.244,4.554,0.047,0.011,-0.505,-4766.000,1719.000,-13.000,0.555,-0.827,0.066,0.065,907.836,20.323,916.576,875.899,907.740,20.770,917.448,882.759
786.529,2,-56.010,-89.632,871.110,-2.335,-5.465,3.492,-0.124,-0.802,-14.672,39.0819093,-75.8763013,856.828,-56.350,-89.334,876.228,16,-0.122,-0.007,4.927,0.011,0.047,-0.454,-4789.000,1835.000,-26.000,0.573,-0.814,0.066,0.068,906.797,20.316,926.028,885.351,906.150,20.760,931.920,897.231
786.629,2,-57.421,-92.438,889.766,-2.009,-6.080,6.484,0.565,-1.828,-13.782,39.0818991,-75.8763242,871.432,-57.482,-91.316,890.832,16,0.776,-0.970,4.231,0.038,0.089,-0.520,-4809.000,1901.000,-5.000,0.594,-0.798,0.068,0.072,904.664,20.322,945.469,904.792,904.630,20.760,945.775,911.086
786.729,2,-58.782,-95.167,904.565,-2.098,-5.909,3.886,-0.240,-1.177,-14.397,39.0818888,-75.8763470,885.859,-58.626,-93.289,905.259,15,0.280,0.036,4.734,0.045,-0.017,-0.475,-4841.000,1971.000,38.000,0.613,-0.784,0.068,0.072,903.685,20.318,954.400,913.723,902.980,20.760,960.836,926.147
786.829,2,-60.149,-97.449,921.492,-2.132,-4.866,1.599,-0.311,-0.267,-14.432,39.0818786,-75.8763696,900.136,-59.758,-95.244,919.536,15,-0.567,0.280,4.597,-0.045,-0.045,-0.398,-4875.000,2032.000,-25.000,0.628,-0.772,0.063,0.073,901.627,20.316,973.200,932.523,901.540,20.770,973.998,939.309
786.929,2,-61.426,-99.348,938.885,-1.826,-4.202,-0.771,0.008,-0.608,-13.729,39.0818683,-75.8763921,914.283,-60.902,-97.191,933.683,16,-0.201,-0.165,3.958,-0.128,0.098,-0.486,-4872.000,2175.000,-35.000,0.646,-0.756,0.060,0.082,899.617,20.322,991.597,950.920,900.070,20.780,987.452,952.763
787.029,2,-62.683,-101.059,949.925,-2.017,-3.324,-6.910,-0.531,-0.183,-14.311,39.0818580,-75.8764147,928.288,-62.045,-99.146,947.688,16,-0.654,0.345,4.475,-0.124,-0.019,-0.386,-4877.000,2258.000,38.000,0.660,-0.744,0.053,0.086,898.622,20.324,1000.723,960.046,898.470,20.770,1002.116,967.427
787.129,2,-63.079,-101.254,968.463,-2.138,-3.307,-0.526,-0.564,-0.552,-13.603,39.0818479,-75.8764372,942.153,-63.166,-101.093,961.553,15,-0.158,0.330,3.857,-0.053,-0.015,-0.390,-4833.000,2378.000,49.000,0.674,-0.731,0.049,0.089,896.653,20.323,1018.798,978.121,896.930,20.760,1016.250,981.561
787.229,2,-63.880,-102.464,977.274,-2.333,-3.639,-0.438,-0.403,-0.811,-14.318,39.0818379,-75.8764596,955.886,-64.277,-103.032,975.286,16,-0.029,0.108,4.597,-0.006,-0.075,-0.588,-4872.000,2425.000,-35.000,0.696,-0.712,0.043,0.087,895.678,20.314,1027.753,987.076,895.500,20.770,1029.392,994.703
787.329,2,-64.893,-104.179,989.032,-2.127,-4.036,0.334,0.959,-0.669,-13.100,39.0818280,-75.8764819,969.496,-65.376,-104.961,988.896,17,0.101,-1.207,3.275,-0.107,-0.075,-0.349,-4865.000,2552.000,84.000,0.708,-0.700,0.035,0.089,893.756,20.317,1045.446,1004.769,894.060,20.770,1042.643,1007.954
787.429,2,-66.068,-106.282,999.698,-2.262,-4.156,0.831,-0.046,0.120,-12.915,39.0818180,-75.8765043,982.967,-66.486,-106.899,1002.367,16,-0.661,-0.273,3.024,-0.153,0.034,-0.501,-4868.000,2644.000,49.000,0.724,-0.682,0.029,0.097,892.806,20.328,1054.192,1013.515,892.630,20.770,1055.819,1021.130
787.529,2,-67.347,-108.641,1014.739,-2.041,-4.345,3.735,0.579,-0.230,-13.151,39.0818082,-75.8765265,996.294,-67.574,-108.820,1015.694,17,-0.273,-0.991,3.239,-0.251,-0.034,-0.328,-4915.000,2739.000,9.000,0.734,-0.671,0.017,0.105,890.933,20.323,1071.479,1030.802,891.220,20.770,1068.828,1034.139
787.629,2,-68.742,-111.159,1028.380,-2.557,-4.636,3.441,-0.873,-0.780,-14.067,39.0817983,-75.8765487,1009.510,-68.673,-110.741,1028.910,17,-0.036,0.316,4.403,-0.111,-0.040,-0.641,-4918.000,2829.000,15.000,0.755,-0.647,0.009,0.108,890.002,20.323,1080.079,1039.402,889.680,20.750,1083.055,1048.366
787.729,2,-70.072,-113.533,1045.048,-1.758,-4.008,3.907,0.887,0.193,-13.113,39.0817882,-75.8765707,1022.604,-69.794,-112.645,1042.004,16,-0.488,-1.415,3.081,0.015,-0.004,-0.439,-4884.000,2912.000,15.000,0.769,-0.630,0.007,0.108,888.135,20.326,1097.351,1056.674,888.410,20.770,1094.803,1060.114
787.829,2,-71.125,-115.580,1057.062,-1.307,-3.397,-0.098,0.392,0.024,-13.145,39.0817782,-75.8765927,1035.528,-70.904,-114.548,1054.928,16,-0.409,-0.919,3.204,0.028,0.068,-0.473,-4873.000,2982.000,82.000,0.784,-0.612,0.008,0.109,887.245,20.316,1105.595,1064.918,887.000,20.770,1107.861,1073.172
787.929,2,-72.284,-117.482,1070.716,-1.839,-3.098,-3.470,-0.744,-0.316,-13.693,39.0817683,-75.8766146,1048.323,-72.003,-116.443,1067.723,17,-0.460,0.151,3.936,0.043,0.000,-0.584,-4800.000,3110.000,40.000,0.801,-0.588,0.006,0.108,885.451,20.322,1122.227,1081.550,885.690,20.760,1120.009,1085.320
788.029,2,-73.472,-119.449,1079.587,-1.280,-3.184,-8.274,0.343,-0.690,-12.970,39.0817584,-75.8766364,1061.027,-73.103,-118.329,1080.427,15,0.345,-0.582,3.182,0.156,0.047,-0.554,-4789.000,3215.000,-2.000,0.818,-0.566,0.009,0.103,884.578,20.318,1130.333,1089.656,884.330,20.770,1132.635,1097.946
788.129,2,-73.956,-120.082,1096.890,-1.450,-3.237,-2.286,-0.418,0.231,-13.245,39.0817488,-75.8766584,1073.539,-74.168,-120.233,1092.939,14,-0.819,-0.244,3.362,0.085,0.045,-0.505,-4727.000,3285.000,18.000,0.833,-0.545,0.011,0.101,882.817,20.329,1146.699,1106.022,883.060,20.770,1144.441,1109.752
788.229,2,-74.712,-121.382,1104.763,-1.751,-3.464,-2.228,-0.711,-0.173,-13.568,39.0817391,-75.8766801,1085.935,-75.245,-122.110,1105.335,15,-0.611,0.101,3.778,0.013,-0.026,-0.528,-4711.000,3393.000,26.000,0.847,-0.522,0.008,0.100,881.962,20.317,1154.657,1113.980,881.750,20.770,1156.632,1121.943
788.329,2,-75.739,-123.100,1115.122,-2.401,-3.849,-1.755,-1.568,-0.558,-13.011,39.0817293,-75.8767018,1098.205,-76.333,-123.988,1117.605,17,-0.661,1.042,3.390,-0.143,0.062,-0.424,-4662.000,3483.000,15.000,0.857,-0.504,0.004,0.108,880.260,20.314,1170.518,1129.841,880.440,20.760,1168.839,1134.150
788.429,2,-77.026,-125.189,1124.322,-2.596,-4.125,-1.636,-0.205,-0.205,-13.138,39.0817196,-75.8767235,1110.321,-77.410,-125.866,1129.721,17,-0.309,-0.381,3.304,-0.126,0.045,-0.456,-4662.000,3483.000,15.000,0.867,-0.484,0.001,0.114,879.440,20.321,1178.169,1137.492,879.180,20.760,1180.593,1145.904
788.529,2,-78.402,-127.513,1137.695,-2.409,-4.183,1.054,0.414,0.035,-13.142,39.0817099,-75.8767449,1122.311,-78.487,-127.717,1141.711,17,-0.136,-1.042,3.189,-0.032,0.019,-0.505,-4606.000,3566.000,59.000,0.879,-0.462,-0.002,0.116,877.736,20.314,1194.079,1153.402,877.980,20.770,1191.800,1157.111
788.629,2,-79.778,-129.927,1149.887,-2.468,-4.333,1.570,-0.258,-0.510,-12.760,39.0817002,-75.8767663,1134.161,-79.564,-129.569,1153.561,17,0.000,-0.122,3.002,-0.004,-0.109,-0.501,-4564.000,3623.000,58.000,0.890,-0.441,-0.010,0.114,876.935,20.331,1201.570,1160.893,876.650,20.760,1204.235,1169.547
788.729,2,-81.091,-132.249,1164.932,-2.265,-3.979,2.166,-0.076,-0.124,-12.634,39.0816907,-75.8767879,1145.849,-80.618,-131.438,1165.249,15,-0.172,-0.445,2.787,0.107,0.068,-0.620,-4532.000,3754.000,135.000,0.904,-0.412,-0.008,0.110,875.289,20.324,1216.981,1176.304,875.400,20.780,1215.937,1181.248
788.829,2,-82.348,-134.422,1175.836,-2.302,-3.952,-1.212,-0.489,-0.745,-12.447,39.0816809,-75.8768094,1157.448,-81.706,-133.298,1176.848,17,0.022,0.316,2.765,0.068,-0.015,-0.520,-4455.000,3820.000,3.000,0.915,-0.389,-0.010,0.106,874.494,20.331,1224.424,1183.747,874.210,20.770,1227.090,1192.401
788.929,2,-83.606,-136.549,1188.323,-2.304,-3.874,-3.865,-0.506,-0.779,-12.612,39.0816712,-75.8768307,1168.917,-82.783,-135.141,1188.317,16,-0.014,0.287,2.938,-0.104,0.083,-0.445,-4426.000,3886.000,63.000,0.923,-0.368,-0.011,0.112,872.887,20.332,1239.504,1198.827,872.990,20.770,1238.536,1203.848
789.029,2,-84.794,-138.532,1196.474,-2.055,-3.398,-8.496,-0.264,-0.381,-12.578,39.0816615,-75.8768519,1180.265,-83.860,-136.976,1199.665,16,-0.079,-0.151,2.801,0.009,-0.083,-0.347,-4373.000,3961.000,18.000,0.929,-0.352,-0.016,0.110,872.094,20.318,1246.948,1206.271,871.810,20.770,1249.620,1214.931
789.129,2,-84.993,-138.880,1212.225,-2.036,-3.368,-3.032,-0.042,-0.029,-12.366,39.0816517,-75.8768732,1191.473,-84.948,-138.819,1210.873,16,-0.072,-0.496,2.507,0.066,-0.107,-0.705,-4290.000,3989.000,47.000,0.941,-0.320,-0.024,0.105,870.570,20.331,1261.278,1220.601,870.670,20.770,1260.340,1225.651
789.229,2,-85.699,-140.089,1222.772,-2.127,-3.648,-1.688,-0.041,-0.596,-12.399,39.0816421,-75.8768943,1202.557,-86.014,-140.644,1221.957,17,0.259,-0.072,2.643,-0.066,0.064,-0.384,-4275.000,4063.000,74.000,0.947,-0.301,-0.024,0.108,869.046,20.327,1275.629,1234.952,869.580,20.770,1270.599,1235.910
789.329,2,-86.680,-141.753,1230.727,-2.347,-3.937,-1.996,-0.379,-0.384,-12.166,39.0816323,-75.8769154,1213.518,-87.102,-142.470,1232.918,17,-0.136,-0.007,2.413,-0.011,0.009,-0.471,-4145.000,4178.000,-21.000,0.954,-0.279,-0.026,0.108,868.280,20.327,1282.845,1242.168,868.400,20.770,1281.718,1247.029
789.429,2,-87.874,-143.770,1241.259,-2.398,-4.098,-0.772,0.085,-0.035,-12.179,39.0816225,-75.8769365,1224.379,-88.190,-144.296,1243.779,17,0.115,-0.539,2.306,-0.009,-0.094,-0.501,-4111.000,4225.000,-29.000,0.960,-0.256,-0.034,0.107,866.813,20.325,1296.695,1256.018,867.260,20.770,1292.471,1257.782
789.529,2,-89.225,-146.013,1251.182,-2.612,-4.149,0.024,-0.374,-0.027,-12.135,39.0816128,-75.8769575,1235.103,-89.267,-146.113,1254.503,17,-0.294,-0.330,2.313,-0.015,0.094,-0.471,-4016.000,4232.000,6.000,0.966,-0.232,-0.032,0.108,866.080,20.323,1303.610,1262.933,866.170,20.770,1302.764,1268.075
789.629,2,-90.692,-148.298,1264.203,-2.844,-3.975,1.667,-0.625,-0.002,-12.308,39.0816030,-75.8769785,1245.697,-90.355,-147.930,1265.097,17,-0.474,-0.294,2.514,0.038,-0.156,-0.473,-3980.000,4313.000,17.000,0.971,-0.210,-0.041,0.104,864.667,20.334,1316.973,1276.296,865.050,20.770,1313.351,1278.662
789.729,2,-92.098,-150.505,1274.985,-2.581,-3.919,0.044,-0.132,-0.499,-12.212,39.0815932,-75.8769994,1256.157,-91.443,-149.738,1275.557,17,0.194,0.000,2.449,0.070,-0.066,-0.571,-3884.000,4398.000,-10.000,0.977,-0.183,-0.047,0.098,863.914,20.323,1324.105,1283.428,863.990,20.770,1323.381,1288.692
789.829,2,-93.380,-152.629,1287.194,-2.545,-3.813,-1.552,-0.544,-0.627,-12.149,39.0815834,-75.8770202,1266.490,-92.530,-151.538,1285.890,16,-0.151,0.266,2.464,-0.013,-0.015,-0.345,-3846.000,4414.000,94.000,0.980,-0.166,-0.049,0.098,862.496,20.325,1337.532,1296.855,862.930,20.770,1333.421,1298.732
789.929,2,-94.675,-154.663,1295.314,-2.682,-3.627,-5.448,-0.796,-0.612,-11.667,39.0815736,-75.8770410,1276.695,-93.618,-153.338,1296.095,16,-0.438,0.402,2.026,-0.081,0.013,-0.298,-3747.000,4405.000,105.000,0.982,-0.151,-0.051,0.101,861.810,20.324,1344.036,1303.359,861.830,20.760,1343.849,1309.161
790.029,2,-95.984,-156.566,1304.866,-2.640,-3.210,-8.317,-0.645,-0.369,-12.048,39.0815637,-75.8770618,1286.784,-94.718,-155.137,1306.184,17,-0.330,0.036,2.334,-0.006,-0.062,-0.396,-3678.000,4468.000,59.000,0.985,-0.132,-0.056,0.100,860.468,20.319,1356.774,1316.097,860.900,20.770,1352.675,1317.986
790.129,2,-96.021,-156.955,1316.387,-2.561,-3.231,-4.624,-0.261,-0.243,-12.364,39.0815538,-75.8770826,1296.746,-95.817,-156.937,1316.146,17,0.086,-0.259,2.564,-0.060,-0.170,-0.496,-3628.000,4476.000,104.000,0.987,-0.108,-0.067,0.100,859.778,20.318,1363.338,1322.661,859.850,20.770,1362.650,1327.961
790.229,2,-96.748,-158.140,1324.860,-2.650,-3.365,-3.790,-0.186,0.076,-11.905,39.0815438,-75.8771033,1306.584,-96.927,-158.728,1325.984,16,0.079,-0.481,2.047,-0.015,-0.100,-0.479,-3529.000,4528.000,19.000,0.989,-0.085,-0.075,0.099,858.456,20.332,1375.904,1335.227,858.830,20.770,1372.348,1337.659
790.329,2,-97.777,-159.724,1331.236,-2.683,-3.488,-4.344,0.078,0.170,-11.805,39.0815338,-75.8771239,1316.334,-98.037,-160.511,1335.734,16,0.316,-0.589,1.889,-0.053,0.075,-0.420,-3526.000,4570.000,118.000,0.990,-0.064,-0.073,0.100,857.792,20.331,1382.223,1341.546,857.840,20.770,1381.770,1347.081
790.429,2,-99.020,-161.630,1340.083,-2.813,-3.672,-3.383,-0.228,-0.001,-11.952,39.0815239,-75.8771445,1325.964,-99.136,-162.293,1345.364,17,0.079,-0.417,2.112,-0.002,-0.021,-0.364,-3444.000,4569.000,65.000,0.991,-0.046,-0.076,0.099,856.484,20.323,1394.693,1354.016,856.890,20.780,1390.820,1356.131
790.529,2,-100.420,-163.827,1348.508,-2.883,-4.090,-2.533,-0.254,-0.627,-11.856,39.0815139,-75.8771649,1335.482,-100.246,-164.058,1354.882,17,0.115,0.215,2.140,-0.013,-0.062,-0.239,-3337.000,4592.000,80.000,0.991,-0.034,-0.080,0.099,855.845,20.335,1400.785,1360.108,855.860,20.770,1400.641,1365.952
790.629,2,-101.846,-166.151,1360.117,-2.824,-4.068,-0.428,-0.286,-0.213,-11.634,39.0815040,-75.8771853,1344.882,-101.345,-165.823,1364.282,17,0.036,-0.136,1.853,0.028,-0.075,-0.545,-3294.000,4563.000,83.000,0.992,-0.008,-0.087,0.095,854.572,20.329,1412.936,1372.259,854.970,20.770,1409.135,1374.446
790.729,2,-103.230,-168.372,1369.680,-2.857,-3.945,-1.418,-0.636,-0.434,-11.421,39.0814941,-75.8772055,1354.175,-102.444,-167.571,1373.575,16,-0.330,0.079,1.753,-0.141,-0.072,-0.503,-3232.000,4586.000,74.000,0.991,0.017,-0.093,0.100,853.951,20.325,1418.864,1378.187,853.970,20.760,1418.687,1383.998
790.829,2,-104.582,-170.397,1380.464,-2.862,-3.493,-2.832,-0.717,-0.193,-11.700,39.0814841,-75.8772258,1363.342,-103.554,-169.328,1382.742,17,-0.338,-0.230,1.990,0.002,-0.034,-0.430,-3123.000,4579.000,-9.000,0.990,0.039,-0.096,0.097,852.726,20.323,1430.585,1389.908,852.970,20.770,1428.248,1393.559
790.929,2,-105.817,-172.255,1387.694,-2.454,-3.232,-6.451,-0.267,-0.442,-11.481,39.0814741,-75.8772460,1372.395,-104.665,-171.075,1391.795,18,0.065,0.093,1.745,-0.036,-0.138,-0.447,-3065.000,4549.000,65.000,0.988,0.060,-0.105,0.097,852.104,20.321,1436.538,1395.861,852.100,20.760,1436.574,1401.885
791.029,2,-107.005,-173.982,1396.178,-2.533,-2.669,-9.063,-0.737,-0.081,-11.704,39.0814640,-75.8772662,1381.338,-105.786,-172.823,1400.738,18,-0.273,-0.366,1.982,0.051,-0.089,-0.435,-3054.000,4557.000,16.000,0.986,0.081,-0.112,0.093,850.910,20.334,1447.972,1407.295,851.220,20.770,1445.002,1410.313
791.129,2,-107.085,-174.473,1407.023,-2.477,-2.733,-5.530,-0.278,-0.079,-11.713,39.0814538,-75.8772864,1390.167,-106.918,-174.571,1409.567,16,0.172,-0.280,1.896,0.013,0.034,-0.277,-2959.000,4563.000,87.000,0.985,0.095,-0.112,0.090,850.314,20.321,1453.686,1413.009,850.330,20.770,1453.533,1418.844
791.229,2,-107.826,-175.635,1414.566,-2.629,-3.048,-4.869,-0.426,-0.606,-11.503,39.0814437,-75.8773066,1398.888,-108.040,-176.319,1418.288,17,-0.093,0.230,1.832,0.000,-0.098,-0.190,-2872.000,4572.000,33.000,0.984,0.104,-0.117,0.090,849.152,20.329,1464.838,1424.161,849.460,20.780,1461.879,1427.190
791.329,2,-108.893,-177.189,1420.090,-2.915,-3.366,-5.445,-0.683,-0.373,-11.224,39.0814336,-75.8773266,1407.496,-109.161,-178.049,1426.896,18,-0.359,-0.029,1.573,-0.049,-0.034,-0.294,-2843.000,4533.000,78.000,0.982,0.118,-0.120,0.091,848.571,20.329,1470.417,1429.740,848.490,20.760,1471.194,1436.505
791.429,2,-110.225,-179.111,1427.713,-3.112,-3.826,-4.697,-0.415,-0.634,-11.495,39.0814234,-75.8773467,1415.991,-110.293,-179.789,1435.391,18,-0.079,0.230,1.832,-0.081,-0.126,-0.447,-2776.000,4509.000,47.000,0.977,0.140,-0.128,0.093,847.429,20.331,1481.388,1440.711,847.700,20.770,1478.786,1444.097
791.529,2,-111.737,-181.316,1437.597,-3.335,-4.059,-2.317,-0.642,-0.304,-11.320,39.0814132,-75.8773666,1424.385,-111.426,-181.510,1443.785,18,-0.244,-0.136,1.645,-0.026,-0.045,-0.324,-2722.000,4504.000,47.000,0.975,0.156,-0.131,0.092,846.336,20.318,1491.905,1451.228,846.960,20.770,1485.902,1451.213
791.629,2,-113.273,-183.641,1446.568,-3.216,-4.306,-1.717,-0.352,-0.709,-11.280,39.0814030,-75.8773864,1432.655,-112.558,-183.224,1452.055,17,-0.101,0.345,1.631,0.030,-0.070,-0.288,-2673.000,4513.000,74.000,0.972,0.169,-0.136,0.089,845.791,20.327,1497.160,1456.483,846.070,20.770,1494.468,1459.779
791.729,2,-114.681,-185.855,1457.126,-3.021,-3.947,-1.679,-0.477,-0.191,-11.544,39.0813928,-75.8774063,1440.830,-113.690,-184.946,1460.230,16,0.036,-0.208,1.796,0.017,-0.036,-0.362,-2579.000,4463.000,103.000,0.969,0.187,-0.140,0.086,844.706,20.332,1507.606,1466.929,845.240,20.770,1502.464,1467.775
791.829,2,-115.941,-187.803,1464.573,-2.693,-3.527,-4.144,-0.379,-0.296,-10.830,39.0813826,-75.8774259,1448.902,-114.823,-186.641,1468.302,17,-0.122,0.007,1.121,0.028,-0.058,-0.277,-2534.000,4484.000,132.000,0.966,0.200,-0.144,0.084,844.181,20.331,1512.673,1471.996,844.510,20.770,1509.501,1474.812
791.929,2,-117.093,-189.638,1472.865,-2.414,-3.409,-6.473,-0.397,-0.665,-11.197,39.0813724,-75.8774456,1456.829,-115.955,-188.346,1476.229,18,-0.158,0.302,1.551,0.089,-0.098,-0.524,-2480.000,4442.000,180.000,0.960,0.224,-0.152,0.076,843.122,20.325,1522.898,1482.221,843.700,20.780,1517.315,1482.626
792.029,2,-118.218,-191.360,1478.025,-2.256,-2.890,-9.898,-0.459,-0.225,-10.889,39.0813622,-75.8774649,1464.660,-117.087,-190.016,1484.060,17,-0.115,-0.093,1.185,0.040,-0.115,-0.386,-2386.000,4420.000,125.000,0.955,0.241,-0.159,0.073,842.607,20.329,1527.873,1487.196,842.880,20.760,1525.231,1490.542
792.129,2,-118.338,-191.711,1490.334,-2.261,-2.922,-5.635,-0.537,-0.314,-11.115,39.0813520,-75.8774843,1472.384,-118.220,-191.695,1491.784,16,-0.144,-0.072,1.437,0.000,0.023,-0.343,-2333.000,4326.000,123.000,0.950,0.258,-0.159,0.070,841.583,20.323,1537.770,1497.093,842.130,20.780,1532.478,1497.789
792.229,2,-119.081,-192.813,1495.186,-2.429,-3.181,-5.839,-0.417,-0.510,-11.052,39.0813417,-75.8775036,1479.988,-119.363,-193.364,1499.388,16,-0.158,0.172,1.386,0.132,-0.058,-0.441,-2259.000,4316.000,165.000,0.944,0.277,-0.165,0.061,841.079,20.327,1542.638,1501.961,841.410,20.770,1539.439,1504.751
