Time,Stage,PX,PY,PZ,VX,VY,VZ,AX,AY,AZ,B-Pres (hPa),B-Temp (C),B-Alt (ft),G-Lat (deg),G-Lon (deg),G-Alt (m),G-Speed (m/s),G-DispX (m),G-DispY (m),G-DispZ (m),G-ToD (s),G-# of Sats,I-AX (m/s/s),I-AY (m/s/s),I-AZ (m/s/s),I-ULRX,I-ULRY,I-ULRZ,I-QUATX,I-QUATY,I-QUATZ,I-QUATW
8.354,Pre-Flight,0.00,0.00,0.06,0.00,0.00,-0.00,0.09,-0.41,0.09,858.03,38.68,0.19,0.0000000000,0.0000000000,0.00,0.00,0.00,0.00,0.00,00:00:00,0,0.09,-0.41,0.09,0.00,5.56,87.31,-0.69,-0.07,0.00,0.72
8.454,Pre-Flight,0.00,0.00,0.21,0.00,0.00,0.34,-0.07,-0.40,-0.07,858.05,38.59,0.70,0.0000000000,0.0000000000,0.00,0.00,0.00,0.00,0.00,00:00:00,0,-0.07,-0.40,-0.07,359.94,5.56,87.31,-0.69,-0.07,0.00,0.72
8.554,Pre-Flight,0.00,0.00,0.35,0.00,0.00,0.24,0.02,-0.44,0.02,858.01,38.56,1.14,0.0000000000,0.0000000000,0.00,0.00,0.00,0.00,0.00,00:00:00,0,0.02,-0.44,0.02,0.00,5.56,87.31,-0.69,-0.07,0.00,0.72
8.654,Pre-Flight,0.00,0.00,0.19,0.00,0.00,-0.24,0.05,-0.42,0.05,858.03,38.55,0.63,0.0000000000,0.0000000000,0.00,0.00,0.00,0.00,0.00,00:00:00,0,0.05,-0.42,0.05,0.00,5.56,87.31,-0.69,-0.07,0.00,0.72
8.754,Pre-Flight,0.00,0.00,0.07,0.00,0.00,-0.17,0.04,-0.40,0.04,858.04,38.55,0.21,0.0000000000,0.0000000000,0.00,0.00,0.00,0.00,0.00,00:00:00,0,0.04,-0.40,0.04,0.00,5.56,87.31,-0.69,-0.07,0.00,0.72
8.854,Pre-Flight,0.00,0.00,0.10,0.00,0.00,0.03,0.09,-0.42,0.09,858.05,38.55,0.31,0.0000000000,0.0000000000,0.00,0.00,0.00,0.00,0.00,00:00:00,0,0.09,-0.42,0.09,0.00,5.56,87.31,-0.69,-0.07,-0.00,0.72
8.954,Pre-Flight,0.00,0.00,0.27,0.00,0.00,0.19,-0.01,-0.41,-0.01,858.05,38.56,0.90,0.0000000000,0.0000000000,0.00,0.00,0.00,0.00,0.00,00:00:00,0,-0.01,-0.41,-0.01,0.00,5.56,87.31,-0.69,-0.07,-0.00,0.72
9.054,Pre-Flight,0.00,0.00,0.26,0.00,0.00,-0.02,0.00,-0.40,0.00,858.01,38.56,0.84,0.0000000000,0.0000000000,0.00,0.00,0.00,0.00,0.00,00:00:00,0,0.00,-0.40,0.00,359.94,5.56,87.31,-0.69,-0.07,0.00,0.72
9.154,Pre-Flight,0.00,0.00,0.16,0.00,0.00,-0.63,0.11,-0.39,0.11,858.03,38.57,0.53,0.0000000000,0.0000000000,0.00,0.00,0.00,0.00,0.00,00:00:00,0,0.11,-0.39,0.11,359.94,5.56,87.31,-0.69,-0.07,0.00,0.72
9.254,Pre-Flight,0.00,0.00,0.14,0.00,0.00,-0.10,0.05,-0.42,0.05,858.04,38.57,0.45,0.0000000000,0.0000000000,0.00,0.00,0.00,0.00,0.00,00:00:00,0,0.05,-0.42,0.05,359.94,5.56,87.31,-0.69,-0.07,0.00,0.72
9.354,Pre-Flight,0.00,0.00,0.01,0.00,0.00,-0.36,-0.08,-0.39,-0.08,858.05,38.57,0.03,0.0000000000,0.0000000000,0.00,0.00,0.00,0.00,0.00,00:00:00,0,-0.08,-0.39,-0.08,359.94,5.56,87.31,-0.69,-0.07,0.00,0.72
9.454,Pre-Flight,0.00,0.00,0.27,0.00,0.00,0.57,0.03,-0.32,0.03,858.05,38.57,0.89,0.0000000000,0.0000000000,0.00,0.00,0.00,0.00,0.00,00:00:00,0,0.03,-0.32,0.03,359.94,5.56,87.31,-0.69,-0.07,0.00,0.72
9.554,Pre-Flight,0.00,0.00,0.29,0.00,0.00,0.04,-0.00,-0.28,-0.00,858.00,38.57,0.97,0.0000000000,0.0000000000,0.00,0.00,0.00,0.00,0.00,00:00:00,0,-0.00,-0.28,-0.00,359.94,5.56,87.31,-0.69,-0.07,0.00,0.72
9.654,Pre-Flight,0.00,0.00,0.18,0.00,0.00,-0.18,0.02,-0.25,0.02,858.02,38.58,0.59,0.0000000000,0.0000000000,0.00,0.00,0.00,0.00,0.00,00:00:00,0,0.02,-0.25,0.02,359.94,5.56,87.31,-0.69,-0.07,0.00,0.72
9.754,Pre-Flight,0.00,0.00,0.05,0.00,0.00,-0.17,0.13,-0.22,0.13,858.03,38.58,0.16,0.0000000000,0.0000000000,0.00,0.00,0.00,0.00,0.00,00:00:00,0,0.13,-0.22,0.13,0.00,5.56,87.31,-0.69,-0.07,0.00,0.72
9.854,Pre-Flight,0.00,0.00,-0.01,0.00,0.00,-0.07,-0.03,-0.18,-0.03,858.04,38.58,-0.04,0.0000000000,0.0000000000,0.00,0.00,0.00,0.00,0.00,00:00:00,0,-0.03,-0.18,-0.03,359.94,5.56,87.31,-0.69,-0.07,0.00,0.72
9.954,Pre-Flight,0.00,0.00,0.17,0.00,0.00,0.19,-0.11,-0.10,-0.11,858.05,38.58,0.55,0.0000000000,0.0000000000,0.00,0.00,0.00,0.00,0.00,00:00:00,0,-0.11,-0.10,-0.11,359.94,5.56,87.31,-0.69,-0.07,0.00,0.72
10.054,Pre-Flight,0.00,0.00,0.21,0.00,0.00,0.04,0.07,-0.07,0.07,858.00,38.58,0.70,0.0000000000,0.0000000000,0.00,0.00,0.00,0.00,0.00,00:00:00,0,0.07,-0.07,0.07,359.94,5.56,87.31,-0.69,-0.07,0.00,0.72
10.154,Pre-Flight,0.00,0.00,-0.10,0.00,0.00,-2.05,-0.03,-0.05,-0.03,858.03,38.58,-0.33,0.0000000000,0.0000000000,0.00,0.00,0.00,0.00,0.00,00:00:00,0,-0.03,-0.05,-0.03,359.94,5.62,87.31,-0.69,-0.07,0.00,0.72
10.254,Pre-Flight,0.00,0.00,-0.32,0.00,0.00,-0.86,0.01,-0.01,0.01,858.06,38.59,-1.04,0.0000000000,0.0000000000,0.00,0.00,0.00,0.00,0.00,00:00:00,0,0.01,-0.01,0.01,359.94,5.56,87.31,-0.69,-0.07,0.00,0.72
10.354,Pre-Flight,0.00,0.00,-0.39,0.00,0.00,-0.21,0.10,-0.01,0.10,858.08,38.59,-1.29,0.0000000000,0.0000000000,0.00,0.00,0.00,0.00,0.00,00:00:00,0,0.10,-0.01,0.10,359.94,5.56,87.31,-0.69,-0.07,0.00,0.72
10.454,Pre-Flight,0.00,0.00,-0.12,0.00,0.00,0.60,-0.05,-0.01,-0.05,858.08,38.59,-0.40,0.0000000000,0.0000000000,0.00,0.00,0.00,0.00,0.00,00:00:00,0,-0.05,-0.01,-0.05,359.88,5.62,87.31,-0.69,-0.07,0.00,0.72
10.554,Pre-Flight,0.00,0.00,-0.08,0.00,0.00,0.08,-0.05,-0.02,-0.05,858.03,38.58,-0.25,0.0000000000,0.0000000000,0.00,0.00,0.00,0.00,0.00,00:00:00,0,-0.05,-0.02,-0.05,359.88,5.62,87.31,-0.69,-0.07,0.00,0.72
10.654,Pre-Flight,0.00,0.00,-0.35,0.00,0.00,-0.42,0.06,0.00,0.06,858.05,38.59,-1.14,0.0000000000,0.0000000000,0.00,0.00,0.00,0.00,0.00,00:00:00,0,0.06,0.00,0.06,359.94,5.62,87.31,-0.69,-0.07,0.00,0.72
10.754,Pre-Flight,0.00,0.00,-0.35,0.00,0.00,0.00,-0.12,-0.01,-0.12,858.07,38.59,-1.13,0.0000000000,0.0000000000,0.00,0.00,0.00,0.00,0.00,00:00:00,0,-0.12,-0.01,-0.12,359.88,5.62,87.31,-0.69,-0.07,0.00,0.72
10.854,Pre-Flight,0.00,0.00,-0.51,0.00,0.00,-0.19,-0.02,0.00,-0.02,858.08,38.59,-1.66,0.0000000000,0.0000000000,0.00,0.00,0.00,0.00,0.00,00:00:00,0,-0.02,0.00,-0.02,359.88,5.62,87.31,-0.69,-0.07,0.00,0.72
10.954,Pre-Flight,0.00,0.00,-0.23,0.00,0.00,0.29,0.07,0.00,0.07,858.08,38.59,-0.74,0.0000000000,0.0000000000,0.00,0.00,0.00,0.00,0.00,00:00:00,0,0.07,0.00,0.07,359.88,5.62,87.31,-0.69,-0.07,0.00,0.72
11.054,Pre-Flight,0.00,0.00,-0.10,0.00,0.00,0.12,-0.06,0.01,-0.06,858.02,38.59,-0.34,0.0000000000,0.0000000000,0.00,0.00,0.00,0.00,0.00,00:00:00,0,-0.06,0.01,-0.06,359.81,5.62,87.31,-0.69,-0.07,0.00,0.72
11.154,Pre-Flight,0.00,0.00,-0.42,0.00,0.00,-2.09,0.07,0.01,0.07,858.05,38.59,-1.39,0.0000000000,0.0000000000,0.00,0.00,0.00,0.00,0.00,00:00:00,0,0.07,0.01,0.07,359.81,5.62,87.31,-0.69,-0.07,0.00,0.72
11.254,Pre-Flight,0.00,0.00,-0.41,0.00,0.00,0.07,0.06,0.01,0.06,858.08,38.59,-1.34,0.0000000000,0.0000000000,0.00,0.00,0.00,0.00,0.00,00:00:00,0,0.06,0.01,0.06,359.88,5.62,87.31,-0.69,-0.07,0.00,0.72
11.354,Pre-Flight,0.00,0.00,-0.38,0.00,0.00,0.09,-0.11,0.01,-0.11,858.08,38.59,-1.23,0.0000000000,0.0000000000,0.00,0.00,0.00,0.00,0.00,00:00:00,0,-0.11,0.01,-0.11,359.81,5.62,87.31,-0.69,-0.07,0.00,0.72
11.454,Pre-Flight,0.00,0.00,-0.12,0.00,0.00,0.55,-0.03,-0.00,-0.03,858.08,38.59,-0.41,0.0000000000,0.0000000000,0.00,0.00,0.00,0.00,0.00,00:00:00,0,-0.03,-0.00,-0.03,359.81,5.62,87.31,-0.69,-0.07,0.00,0.72
11.554,Pre-Flight,0.00,0.00,-0.11,0.00,0.00,0.02,0.10,-0.01,0.10,858.03,38.59,-0.37,0.0000000000,0.0000000000,0.00,0.00,0.00,0.00,0.00,00:00:00,0,0.10,-0.01,0.10,359.81,5.62,87.31,-0.69,-0.07,0.00,0.72
11.654,Pre-Flight,0.00,0.00,-0.23,0.00,0.00,-0.18,-0.03,0.01,-0.03,858.07,38.59,-0.76,0.0000000000,0.0000000000,0.00,0.00,0.00,0.00,0.00,00:00:00,0,-0.03,0.01,-0.03,359.81,5.62,87.31,-0.69,-0.07,0.00,0.72
11.754,Pre-Flight,0.00,0.00,-0.22,0.00,0.00,0.01,0.05,-0.01,0.05,858.07,38.59,-0.73,0.0000000000,0.0000000000,0.00,0.00,0.00,0.00,0.00,00:00:00,0,0.05,-0.01,0.05,359.81,5.62,87.31,-0.69,-0.07,0.00,0.72
11.854,Pre-Flight,0.00,0.00,-0.36,0.00,0.00,-0.16,0.01,-0.02,0.01,858.08,38.59,-1.19,0.0000000000,0.0000000000,0.00,0.00,0.00,0.00,0.00,00:00:00,0,0.01,-0.02,0.01,359.81,5.62,87.31,-0.69,-0.07,0.00,0.72
11.954,Pre-Flight,0.00,0.00,-0.10,0.00,0.00,0.27,-0.11,-0.00,-0.11,858.09,38.59,-0.34,0.0000000000,0.0000000000,0.00,0.00,0.00,0.00,0.00,00:00:00,0,-0.11,-0.00,-0.11,359.75,5.62,87.31,-0.69,-0.07,0.00,0.72
12.054,Pre-Flight,0.00,0.00,0.06,0.00,0.00,0.16,0.05,0.04,0.05,858.04,38.59,0.19,0.0000000000,0.0000000000,0.00,0.00,0.00,0.00,0.00,00:00:00,0,0.05,0.04,0.05,359.75,5.62,87.31,-0.69,-0.07,0.00,0.72
12.154,Pre-Flight,0.00,0.00,-0.13,0.00,0.00,-1.23,0.09,-0.00,0.09,858.07,38.59,-0.43,0.0000000000,0.0000000000,0.00,0.00,0.00,0.00,0.00,00:00:00,0,0.09,-0.00,0.09,359.81,5.62,87.31,-0.69,-0.07,0.00,0.72
12.254,Pre-Flight,0.00,0.00,-0.18,0.00,0.00,-0.18,-0.00,0.00,-0.00,858.08,38.59,-0.58,0.0000000000,0.0000000000,0.00,0.00,0.00,0.00,0.00,00:00:00,0,-0.00,0.00,-0.00,359.75,5.62,87.31,-0.69,-0.07,0.00,0.72
12.354,Pre-Flight,0.00,0.00,-0.24,0.00,0.00,-0.18,0.03,-0.02,0.03,858.08,38.59,-0.79,0.0000000000,0.0000000000,0.00,0.00,0.00,0.00,0.00,00:00:00,0,0.03,-0.02,0.03,359.75,5.62,87.31,-0.69,-0.07,0.00,0.72
12.454,Pre-Flight,0.00,0.00,0.05,0.00,0.00,0.63,-0.02,-0.02,-0.02,858.08,38.59,0.15,0.0000000000,0.0000000000,0.00,0.00,0.00,0.00,0.00,00:00:00,0,-0.02,-0.02,-0.02,359.75,5.62,87.31,-0.69,-0.07,0.00,0.72
12.554,Pre-Flight,0.00,0.00,0.18,0.00,0.00,0.24,-0.10,-0.01,-0.10,858.03,38.59,0.59,0.0000000000,0.0000000000,0.00,0.00,0.00,0.00,0.00,00:00:00,0,-0.10,-0.01,-0.10,359.69,5.62,87.38,-0.69,-0.07,0.00,0.72
12.654,Pre-Flight,0.00,0.00,0.09,0.00,0.00,-0.14,0.07,0.00,0.07,858.05,38.59,0.28,0.0000000000,0.0000000000,0.00,0.00,0.00,0.00,0.00,00:00:00,0,0.07,0.00,0.07,359.75,5.62,87.31,-0.69,-0.07,0.00,0.72
12.754,Pre-Flight,0.00,0.00,0.07,0.00,0.00,-0.02,0.05,-0.01,0.05,858.05,38.60,0.25,0.0000000000,0.0000000000,0.00,0.00,0.00,0.00,0.00,00:00:00,0,0.05,-0.01,0.05,359.75,5.62,87.31,-0.69,-0.07,0.00,0.72
12.854,Pre-Flight,0.00,0.00,-0.01,0.00,0.00,-0.10,-0.08,-0.02,-0.08,858.06,38.60,-0.04,0.0000000000,0.0000000000,0.00,0.00,0.00,0.00,0.00,00:00:00,0,-0.08,-0.02,-0.08,359.75,5.62,87.38,-0.69,-0.07,0.00,0.72
12.954,Pre-Flight,0.00,0.00,0.28,0.00,0.00,0.31,0.07,-0.02,0.07,858.06,38.60,0.92,0.0000000000,0.0000000000,0.00,0.00,0.00,0.00,0.00,00:00:00,0,0.07,-0.02,0.07,359.75,5.62,87.38,-0.69,-0.07,0.00,0.72
13.054,Pre-Flight,0.00,0.00,0.46,0.00,0.00,0.17,0.04,-0.02,0.04,858.01,38.59,1.52,0.0000000000,0.0000000000,0.00,0.00,0.00,0.00,0.00,00:00:00,0,0.04,-0.02,0.04,359.75,5.62,87.38,-0.69,-0.07,0.00,0.72
13.154,Pre-Flight,0.00,0.00,0.24,0.00,0.00,-1.44,-0.04,0.01,-0.04,858.03,38.60,0.79,0.0000000000,0.0000000000,0.00,0.00,0.00,0.00,0.00,00:00:00,0,-0.04,0.01,-0.04,359.75,5.62,87.38,-0.69,-0.07,0.00,0.72
13.254,Pre-Flight,0.00,0.00,0.11,0.00,0.00,-0.51,-0.08,0.00,-0.08,858.05,38.60,0.36,0.0000000000,0.0000000000,0.00,0.00,0.00,0.00,0.00,00:00:00,0,-0.08,0.00,-0.08,359.75,5.62,87.38,-0.69,-0.07,0.00,0.72
13.354,Pre-Flight,0.00,0.00,0.05,0.00,0.00,-0.16,-0.01,0.01,-0.01,858.06,38.60,0.17,0.0000000000,0.0000000000,0.00,0.00,0.00,0.00,0.00,00:00:00,0,-0.01,0.01,-0.01,359.75,5.62,87.38,-0.69,-0.07,0.00,0.72
13.454,Pre-Flight,0.00,0.00,0.38,0.00,0.00,0.73,-0.03,-0.01,-0.03,858.06,38.60,1.26,0.0000000000,0.0000000000,0.00,0.00,0.00,0.00,0.00,00:00:00,0,-0.03,-0.01,-0.03,359.75,5.62,87.38,-0.69,-0.07,0.00,0.72
13.554,Pre-Flight,0.00,0.00,0.51,0.00,0.00,0.22,0.11,0.01,0.11,858.00,38.59,1.66,0.0000000000,0.0000000000,0.00,0.00,0.00,0.00,0.00,00:00:00,0,0.11,0.01,0.11,359.75,5.62,87.38,-0.69,-0.07,0.00,0.72
13.654,Pre-Flight,0.00,0.00,0.41,0.00,0.00,-0.15,0.11,0.01,0.11,858.02,38.60,1.34,0.0000000000,0.0000000000,0.00,0.00,0.00,0.00,0.00,00:00:00,0,0.11,0.01,0.11,359.75,5.62,87.38,-0.69,-0.07,0.00,0.72
13.754,Pre-Flight,0.00,0.00,0.31,0.00,0.00,-0.13,-0.05,-0.00,-0.05,858.04,38.60,1.02,0.0000000000,0.0000000000,0.00,0.00,0.00,0.00,0.00,00:00:00,0,-0.05,-0.00,-0.05,359.69,5.62,87.38,-0.69,-0.07,0.00,0.72
13.854,Pre-Flight,0.00,0.00,0.14,0.00,0.00,-0.20,-0.12,-0.01,-0.12,858.04,38.60,0.46,0.0000000000,0.0000000000,0.00,0.00,0.00,0.00,0.00,00:00:00,0,-0.12,-0.01,-0.12,359.62,5.62,87.38,-0.69,-0.07,0.00,0.72
13.954,Pre-Flight,0.00,0.00,0.41,0.00,0.00,0.29,-0.04,0.00,-0.04,858.04,38.60,1.35,0.0000000000,0.0000000000,0.00,0.00,0.00,0.00,0.00,00:00:00,0,-0.04,0.00,-0.04,359.69,5.62,87.38,-0.69,-0.07,0.00,0.72
14.054,Pre-Flight,0.00,0.00,0.40,0.00,0.00,-0.01,0.02,-0.01,0.02,858.00,38.60,1.31,0.0000000000,0.0000000000,0.00,0.00,0.00,0.00,0.00,00:00:00,0,0.02,-0.01,0.02,359.69,5.62,87.38,-0.69,-0.07,0.00,0.72
14.154,Pre-Flight,0.00,0.00,0.19,0.00,0.00,-1.36,0.15,0.00,0.15,858.03,38.60,0.62,0.0000000000,0.0000000000,0.00,0.00,0.00,0.00,0.00,00:00:00,0,0.15,0.00,0.15,359.69,5.62,87.38,-0.69,-0.07,0.00,0.72
14.254,Pre-Flight,0.00,0.00,-0.01,0.00,0.00,-0.77,0.06,0.01,0.06,858.05,38.60,-0.03,0.0000000000,0.0000000000,0.00,0.00,0.00,0.00,0.00,00:00:00,0,0.06,0.01,0.06,359.69,5.62,87.38,-0.69,-0.07,0.00,0.72
14.354,Pre-Flight,0.00,0.00,-0.03,0.00,0.00,-0.07,-0.09,-0.02,-0.09,858.06,38.60,-0.11,0.0000000000,0.0000000000,0.00,0.00,0.00,0.00,0.00,00:00:00,0,-0.09,-0.02,-0.09,359.62,5.62,87.38,-0.69,-0.07,0.00,0.72
14.454,Pre-Flight,0.00,0.00,0.29,0.00,0.00,0.72,-0.02,0.00,-0.02,858.05,38.60,0.96,0.0000000000,0.0000000000,0.00,0.00,0.00,0.00,0.00,00:00:00,0,-0.02,0.00,-0.02,359.62,5.62,87.38,-0.69,-0.07,0.00,0.72
14.554,Pre-Flight,0.00,0.00,0.43,0.00,0.00,0.24,-0.00,0.02,-0.00,857.99,38.60,1.41,0.0000000000,0.0000000000,0.00,0.00,0.00,0.00,0.00,00:00:00,0,-0.00,0.02,-0.00,359.62,5.62,87.38,-0.69,-0.07,0.00,0.72
14.654,Pre-Flight,0.00,0.00,0.09,0.00,0.00,-0.52,-0.04,0.00,-0.04,858.02,38.60,0.28,0.0000000000,0.0000000000,0.00,0.00,0.00,0.00,0.00,00:00:00,0,-0.04,0.00,-0.04,359.62,5.62,87.38,-0.69,-0.07,0.00,0.72
14.754,Pre-Flight,0.00,0.00,-0.13,0.00,0.00,-0.28,0.05,0.00,0.05,858.05,38.60,-0.41,0.0000000000,0.0000000000,0.00,0.00,0.00,0.00,0.00,00:00:00,0,0.05,0.00,0.05,359.62,5.62,87.38,-0.69,-0.07,0.00,0.72
14.854,Pre-Flight,0.00,0.00,-0.19,0.00,0.00,-0.08,0.02,-0.01,0.02,858.05,38.60,-0.64,0.0000000000,0.0000000000,0.00,0.00,0.00,0.00,0.00,00:00:00,0,0.02,-0.01,0.02,359.62,5.62,87.38,-0.69,-0.07,0.00,0.72
14.954,Pre-Flight,0.00,0.00,0.06,0.00,0.00,0.27,-0.09,-0.00,-0.09,858.06,38.60,0.21,0.0000000000,0.0000000000,0.00,0.00,0.00,0.00,0.00,00:00:00,0,-0.09,-0.00,-0.09,359.62,5.62,87.38,-0.69,-0.07,0.00,0.72
15.054,Pre-Flight,0.00,0.00,0.23,0.00,0.00,0.16,-0.02,-0.00,-0.02,858.00,38.60,0.77,0.0000000000,0.0000000000,0.00,0.00,0.00,0.00,0.00,00:00:00,0,-0.02,-0.00,-0.02,359.56,5.62,87.38,-0.69,-0.07,0.00,0.72
15.154,Pre-Flight,0.00,0.00,-0.04,0.00,0.00,-1.77,-0.07,0.01,-0.07,858.03,38.60,-0.13,0.0000000000,0.0000000000,0.00,0.00,0.00,0.00,0.00,00:00:00,0,-0.07,0.01,-0.07,359.56,5.62,87.38,-0.69,-0.07,0.00,0.72
15.254,Pre-Flight,0.00,0.00,-0.09,0.00,0.00,-0.20,-0.09,0.02,-0.09,858.04,38.60,-0.29,0.0000000000,0.0000000000,0.00,0.00,0.00,0.00,0.00,00:00:00,0,-0.09,0.02,-0.09,359.56,5.62,87.38,-0.69,-0.07,0.00,0.72
15.354,Pre-Flight,0.00,0.00,-0.09,0.00,0.00,-0.01,0.12,0.00,0.12,858.04,38.60,-0.31,0.0000000000,0.0000000000,0.00,0.00,0.00,0.00,0.00,00:00:00,0,0.12,0.00,0.12,359.62,5.62,87.38,-0.69,-0.07,0.00,0.72
15.454,Pre-Flight,0.00,0.00,0.00,0.00,0.00,0.21,0.08,-0.02,0.08,858.05,38.60,0.01,0.0000000000,0.0000000000,0.00,0.00,0.00,0.00,0.00,00:00:00,0,0.08,-0.02,0.08,359.62,5.62,87.38,-0.69,-0.07,0.00,0.72
15.554,Pre-Flight,0.00,0.00,0.04,0.00,0.00,0.07,-0.01,0.01,-0.01,858.01,38.60,0.13,0.0000000000,0.0000000000,0.00,0.00,0.00,0.00,0.00,00:00:00,0,-0.01,0.01,-0.01,359.56,5.62,87.38,-0.69,-0.07,0.00,0.72
15.654,Pre-Flight,0.00,0.00,-0.19,0.00,0.00,-0.35,0.02,0.00,0.02,858.04,38.60,-0.62,0.0000000000,0.0000000000,0.00,0.00,0.00,0.00,0.00,00:00:00,0,0.02,0.00,0.02,359.56,5.62,87.38,-0.69,-0.07,0.00,0.72
15.754,Pre-Flight,0.00,0.00,-0.23,0.00,0.00,-0.06,-0.09,0.00,-0.09,858.06,38.60,-0.77,0.0000000000,0.0000000000,0.00,0.00,0.00,0.00,0.00,00:00:00,0,-0.09,0.00,-0.09,359.56,5.62,87.38,-0.69,-0.07,0.00,0.72
15.854,Pre-Flight,0.00,0.00,-0.32,0.00,0.00,-0.10,-0.13,0.00,-0.13,858.07,38.60,-1.05,0.0000000000,0.0000000000,0.00,0.00,0.00,0.00,0.00,00:00:00,0,-0.13,0.00,-0.13,359.50,5.62,87.38,-0.69,-0.07,0.00,0.72
15.954,Pre-Flight,0.00,0.00,-0.07,0.00,0.00,0.26,0.09,-0.01,0.09,858.07,38.60,-0.24,0.0000000000,0.0000000000,0.00,0.00,0.00,0.00,0.00,00:00:00,0,0.09,-0.01,0.09,359.56,5.62,87.38,-0.69,-0.07,0.00,0.72
16.054,Pre-Flight,0.00,0.00,0.13,0.00,0.00,0.19,0.18,-0.01,0.18,858.01,38.60,0.43,0.0000000000,0.0000000000,0.00,0.00,0.00,0.00,0.00,00:00:00,0,0.18,-0.01,0.18,359.62,5.62,87.38,-0.69,-0.07,0.00,0.72
16.154,Pre-Flight,0.00,0.00,-0.05,0.00,0.00,-1.14,0.03,0.01,0.03,858.03,38.60,-0.15,0.0000000000,0.0000000000,0.00,0.00,0.00,0.00,0.00,00:00:00,0,0.03,0.01,0.03,359.62,5.62,87.38,-0.69,-0.07,0.00,0.72
16.254,Pre-Flight,0.00,0.00,-0.15,0.00,0.00,-0.41,0.01,-0.01,0.01,858.05,38.60,-0.49,0.0000000000,0.0000000000,0.00,0.00,0.00,0.00,0.00,00:00:00,0,0.01,-0.01,0.01,359.56,5.62,87.38,-0.69,-0.07,0.00,0.72
16.354,Pre-Flight,0.00,0.00,-0.21,0.00,0.00,-0.17,0.02,-0.00,0.02,858.05,38.60,-0.70,0.0000000000,0.0000000000,0.00,0.00,0.00,0.00,0.00,00:00:00,0,0.02,-0.00,0.02,359.56,5.62,87.38,-0.69,-0.07,0.00,0.72
16.454,Pre-Flight,0.00,0.00,0.04,0.00,0.00,0.55,-0.11,-0.02,-0.11,858.05,38.60,0.12,0.0000000000,0.0000000000,0.00,0.00,0.00,0.00,0.00,00:00:00,0,-0.11,-0.02,-0.11,359.56,5.62,87.38,-0.69,-0.07,0.00,0.72
16.554,Pre-Flight,0.00,0.00,0.17,0.00,0.00,0.24,-0.02,-0.01,-0.02,858.00,38.60,0.55,0.0000000000,0.0000000000,0.00,0.00,0.00,0.00,0.00,00:00:00,0,-0.02,-0.01,-0.02,359.56,5.62,87.38,-0.69,-0.07,0.00,0.72
16.654,Pre-Flight,0.00,0.00,-0.07,0.00,0.00,-0.36,0.09,-0.00,0.09,858.03,38.61,-0.22,0.0000000000,0.0000000000,0.00,0.00,0.00,0.00,0.00,00:00:00,0,0.09,-0.00,0.09,359.56,5.62,87.38,-0.69,-0.07,0.00,0.72
16.754,Pre-Flight,0.00,0.00,-0.17,0.00,0.00,-0.14,-0.01,-0.01,-0.01,858.05,38.60,-0.56,0.0000000000,0.0000000000,0.00,0.00,0.00,0.00,0.00,00:00:00,0,-0.01,-0.01,-0.01,359.56,5.62,87.38,-0.69,-0.07,0.00,0.72
16.854,Pre-Flight,0.00,0.00,-0.13,0.00,0.00,0.05,0.10,-0.01,0.10,858.05,38.60,-0.43,0.0000000000,0.0000000000,0.00,0.00,0.00,0.00,0.00,00:00:00,0,0.10,-0.01,0.10,359.50,5.62,87.38,-0.69,-0.07,0.00,0.72
16.954,Pre-Flight,0.00,0.00,0.05,0.00,0.00,0.19,0.06,-0.00,0.06,858.06,38.60,0.16,0.0000000000,0.0000000000,0.00,0.00,0.00,0.00,0.00,00:00:00,0,0.06,-0.00,0.06,359.50,5.62,87.38,-0.69,-0.07,0.00,0.72
17.054,Pre-Flight,0.00,0.00,0.07,0.00,0.00,0.02,-0.14,-0.03,-0.14,858.01,38.60,0.22,0.0000000000,0.0000000000,0.00,0.00,0.00,0.00,0.00,00:00:00,0,-0.14,-0.03,-0.14,359.50,5.62,87.38,-0.69,-0.07,0.00,0.72
17.154,Pre-Flight,0.00,0.00,-0.00,0.00,0.00,-0.45,-0.00,0.00,-0.00,858.04,38.61,-0.00,0.0000000000,0.0000000000,0.00,0.00,0.00,0.00,0.00,00:00:00,0,-0.00,0.00,-0.00,359.50,5.62,87.38,-0.69,-0.07,0.00,0.72
17.254,Pre-Flight,0.00,0.00,0.01,0.00,0.00,0.02,-0.06,0.02,-0.06,858.04,38.61,0.02,0.0000000000,0.0000000000,0.00,0.00,0.00,0.00,0.00,00:00:00,0,-0.06,0.02,-0.06,359.50,5.62,87.38,-0.69,-0.07,0.00,0.72
17.354,Pre-Flight,0.00,0.00,0.11,0.00,0.00,0.29,-0.05,-0.03,-0.05,858.03,38.61,0.35,0.0000000000,0.0000000000,0.00,0.00,0.00,0.00,0.00,00:00:00,0,-0.05,-0.03,-0.05,359.50,5.62,87.38,-0.69,-0.07,0.00,0.72
17.454,Pre-Flight,0.00,0.00,0.32,0.00,0.00,0.47,-0.03,0.02,-0.03,858.03,38.61,1.05,0.0000000000,0.0000000000,0.00,0.00,0.00,0.00,0.00,00:00:00,0,-0.03,0.02,-0.03,359.50,5.62,87.38,-0.69,-0.07,0.00,0.72
17.554,Pre-Flight,0.00,0.00,0.29,0.00,0.00,-0.06,0.15,-0.01,0.15,858.00,38.61,0.94,0.0000000000,0.0000000000,0.00,0.00,0.00,0.00,0.00,00:00:00,0,0.15,-0.01,0.15,359.50,5.62,87.38,-0.69,-0.07,0.00,0.72
17.654,Pre-Flight,0.00,0.00,0.05,0.00,0.00,-0.35,-0.07,-0.01,-0.07,858.03,38.61,0.18,0.0000000000,0.0000000000,0.00,0.00,0.00,0.00,0.00,00:00:00,0,-0.07,-0.01,-0.07,359.50,5.62,87.38,-0.69,-0.07,0.00,0.72
17.754,Pre-Flight,0.00,0.00,0.10,0.00,0.00,0.06,0.01,0.01,0.01,858.03,38.61,0.32,0.0000000000,0.0000000000,0.00,0.00,0.00,0.00,0.00,00:00:00,0,0.01,0.01,0.01,359.50,5.62,87.38,-0.69,-0.07,0.00,0.72
17.854,Pre-Flight,0.00,0.00,0.09,0.00,0.00,-0.01,0.03,-0.00,0.03,858.03,38.61,0.28,0.0000000000,0.0000000000,0.00,0.00,0.00,0.00,0.00,00:00:00,0,0.03,-0.00,0.03,359.50,5.62,87.31,-0.69,-0.07,0.00,0.72
17.954,Pre-Flight,0.00,0.00,0.28,0.00,0.00,0.20,-0.03,0.03,-0.03,858.03,38.61,0.92,0.0000000000,0.0000000000,0.00,0.00,0.00,0.00,0.00,00:00:00,0,-0.03,0.03,-0.03,359.50,5.62,87.31,-0.69,-0.07,0.00,0.72
18.054,Pre-Flight,0.00,0.00,0.18,0.00,0.00,-0.10,0.03,-0.00,0.03,858.00,38.61,0.58,0.0000000000,0.0000000000,0.00,0.00,0.00,0.00,0.00,00:00:00,0,0.03,-0.00,0.03,359.50,5.62,87.31,-0.69,-0.07,0.00,0.72
18.154,Pre-Flight,0.00,0.00,0.07,0.00,0.00,-0.67,0.00,-0.00,0.00,858.03,38.61,0.24,0.0000000000,0.0000000000,0.00,0.00,0.00,0.00,0.00,00:00:00,0,0.00,-0.00,0.00,359.50,5.62,87.31,-0.69,-0.07,0.00,0.72
18.254,Pre-Flight,0.00,0.00,-0.11,0.00,0.00,-0.73,-0.04,-0.00,-0.04,858.05,38.61,-0.37,0.0000000000,0.0000000000,0.00,0.00,0.00,0.00,0.00,00:00:00,0,-0.04,-0.00,-0.04,359.50,5.62,87.31,-0.69,-0.07,0.00,0.72
18.354,Pre-Flight,0.00,0.00,-0.12,0.00,0.00,-0.03,0.03,-0.01,0.03,858.05,38.61,-0.40,0.0000000000,0.0000000000,0.00,0.00,0.00,0.00,0.00,00:00:00,0,0.03,-0.01,0.03,359.50,5.62,87.31,-0.69,-0.07,0.00,0.72
18.454,Pre-Flight,0.00,0.00,0.21,0.00,0.00,0.73,-0.03,0.01,-0.03,858.04,38.61,0.69,0.0000000000,0.0000000000,0.00,0.00,0.00,0.00,0.00,00:00:00,0,-0.03,0.01,-0.03,359.44,5.62,87.31,-0.69,-0.07,0.00,0.72
18.554,Pre-Flight,0.00,0.00,0.31,0.00,0.00,0.18,-0.03,0.02,-0.03,857.99,38.61,1.02,0.0000000000,0.0000000000,0.00,0.00,0.00,0.00,0.00,00:00:00,0,-0.03,0.02,-0.03,359.44,5.62,87.31,-0.69,-0.07,0.00,0.72
18.654,Pre-Flight,0.00,0.00,0.18,0.00,0.00,-0.20,0.15,0.01,0.15,858.00,38.61,0.58,0.0000000000,0.0000000000,0.00,0.00,0.00,0.00,0.00,00:00:00,0,0.15,0.01,0.15,359.44,5.62,87.31,-0.69,-0.07,0.00,0.72
18.754,Pre-Flight,0.00,0.00,0.12,0.00,0.00,-0.08,-0.06,0.04,-0.06,858.02,38.61,0.38,0.0000000000,0.0000000000,0.00,0.00,0.00,0.00,0.00,00:00:00,0,-0.06,0.04,-0.06,359.38,5.62,87.38,-0.69,-0.07,0.00,0.72
18.854,Pre-Flight,0.00,0.00,0.03,0.00,0.00,-0.11,-0.05,-0.02,-0.05,858.02,38.61,0.08,0.0000000000,0.0000000000,0.00,0.00,0.00,0.00,0.00,00:00:00,0,-0.05,-0.02,-0.05,359.38,5.62,87.38,-0.69,-0.07,0.00,0.72
18.954,Pre-Flight,0.00,0.00,0.24,0.00,0.00,0.22,0.18,0.01,0.18,858.03,38.61,0.77,0.0000000000,0.0000000000,0.00,0.00,0.00,0.00,0.00,00:00:00,0,0.18,0.01,0.18,359.44,5.62,87.31,-0.69,-0.07,0.00,0.72
19.054,Pre-Flight,0.00,0.00,0.24,0.00,0.00,0.01,-0.07,-0.03,-0.07,857.98,38.61,0.79,0.0000000000,0.0000000000,0.00,0.00,0.00,0.00,0.00,00:00:00,0,-0.07,-0.03,-0.07,359.44,5.62,87.31,-0.69,-0.07,0.00,0.72
19.154,Pre-Flight,0.00,0.00,0.13,0.00,0.00,-0.75,-0.01,-0.04,-0.01,858.01,38.61,0.41,0.0000000000,0.0000000000,0.00,0.00,0.00,0.00,0.00,00:00:00,0,-0.01,-0.04,-0.01,359.44,5.62,87.31,-0.69,-0.07,0.00,0.72
19.254,Pre-Flight,0.00,0.00,0.13,0.00,0.00,0.03,0.03,-0.01,0.03,858.01,38.61,0.44,0.0000000000,0.0000000000,0.00,0.00,0.00,0.00,0.00,00:00:00,0,0.03,-0.01,0.03,359.44,5.62,87.31,-0.69,-0.07,0.00,0.72
19.354,Pre-Flight,0.00,0.00,0.17,0.00,0.00,0.11,-0.09,0.01,-0.09,858.01,38.61,0.56,0.0000000000,0.0000000000,0.00,0.00,0.00,0.00,0.00,00:00:00,0,-0.09,0.01,-0.09,359.38,5.62,87.38,-0.69,-0.07,0.00,0.72
19.454,Pre-Flight,0.00,0.00,0.41,0.00,0.00,0.53,0.03,0.02,0.03,858.01,38.61,1.35,0.0000000000,0.0000000000,0.00,0.00,0.00,0.00,0.00,00:00:00,0,0.03,0.02,0.03,359.38,5.62,87.38,-0.69,-0.07,0.00,0.72
19.554,Pre-Flight,0.00,0.00,0.54,0.00,0.00,0.23,0.10,-0.01,0.10,857.96,38.61,1.76,0.0000000000,0.0000000000,0.00,0.00,0.00,0.00,0.00,00:00:00,0,0.10,-0.01,0.10,359.38,5.62,87.38,-0.69,-0.07,0.00,0.72
19.654,Pre-Flight,0.00,0.00,0.30,0.00,0.00,-0.36,-0.11,0.00,-0.11,857.98,38.61,0.99,0.0000000000,0.0000000000,0.00,0.00,0.00,0.00,0.00,00:00:00,0,-0.11,0.00,-0.11,359.38,5.62,87.38,-0.69,-0.07,0.00,0.72
19.754,Pre-Flight,0.00,0.00,0.16,0.00,0.00,-0.19,-0.10,0.00,-0.10,858.00,38.61,0.51,0.0000000000,0.0000000000,0.00,0.00,0.00,0.00,0.00,00:00:00,0,-0.10,0.00,-0.10,359.38,5.62,87.38,-0.69,-0.07,0.00,0.72
19.854,Pre-Flight,0.00,0.00,0.02,0.00,0.00,-0.16,0.13,0.01,0.13,858.02,38.61,0.06,0.0000000000,0.0000000000,0.00,0.00,0.00,0.00,0.00,00:00:00,0,0.13,0.01,0.13,359.38,5.62,87.38,-0.69,-0.07,0.00,0.72
19.954,Pre-Flight,0.00,0.00,0.16,0.00,0.00,0.15,-0.05,0.03,-0.05,858.03,38.61,0.52,0.0000000000,0.0000000000,0.00,0.00,0.00,0.00,0.00,00:00:00,0,-0.05,0.03,-0.05,359.31,5.69,87.31,-0.69,-0.07,0.00,0.72
20.054,Pre-Flight,0.00,0.00,0.21,0.00,0.00,0.05,-0.06,-0.02,-0.06,857.98,38.61,0.68,0.0000000000,0.0000000000,0.00,0.00,0.00,0.00,0.00,00:00:00,0,-0.06,-0.02,-0.06,359.31,5.69,87.38,-0.69,-0.07,0.00,0.72
20.154,Pre-Flight,0.00,0.00,-0.01,0.00,0.00,-1.44,-0.01,-0.01,-0.01,858.01,38.61,-0.04,0.0000000000,0.0000000000,0.00,0.00,0.00,0.00,0.00,00:00:00,0,-0.01,-0.01,-0.01,359.38,5.69,87.31,-0.69,-0.07,0.00,0.72
20.254,Pre-Flight,0.00,0.00,-0.02,0.00,0.00,-0.01,-0.09,0.01,-0.09,858.01,38.61,-0.05,0.0000000000,0.0000000000,0.00,0.00,0.00,0.00,0.00,00:00:00,0,-0.09,0.01,-0.09,359.31,5.62,87.38,-0.69,-0.07,0.00,0.72
20.354,Pre-Flight,0.00,0.00,0.04,0.00,0.00,0.15,0.00,-0.01,0.00,858.00,38.61,0.12,0.0000000000,0.0000000000,0.00,0.00,0.00,0.00,0.00,00:00:00,0,0.00,-0.01,0.00,359.31,5.62,87.38,-0.69,-0.07,0.00,0.72
20.454,Pre-Flight,0.00,0.00,0.25,0.00,0.00,0.46,0.23,0.02,0.23,858.01,38.61,0.81,0.0000000000,0.0000000000,0.00,0.00,0.00,0.00,0.00,00:00:00,0,0.23,0.02,0.23,359.38,5.62,87.31,-0.69,-0.07,0.00,0.72
20.554,Pre-Flight,0.00,0.00,0.18,0.00,0.00,-0.11,-0.17,0.02,-0.17,857.97,38.61,0.60,0.0000000000,0.0000000000,0.00,0.00,0.00,0.00,0.00,00:00:00,0,-0.17,0.02,-0.17,359.25,5.69,87.31,-0.69,-0.07,0.00,0.72
20.654,Pre-Flight,0.00,0.00,-0.09,0.00,0.00,-0.41,-0.04,-0.01,-0.04,858.00,38.62,-0.29,0.0000000000,0.0000000000,0.00,0.00,0.00,0.00,0.00,00:00:00,0,-0.04,-0.01,-0.04,359.25,5.69,87.31,-0.69,-0.07,0.00,0.72
20.754,Pre-Flight,0.00,0.00,-0.23,0.00,0.00,-0.19,-0.05,-0.02,-0.05,858.02,38.62,-0.75,0.0000000000,0.0000000000,0.00,0.00,0.00,0.00,0.00,00:00:00,0,-0.05,-0.02,-0.05,359.31,5.69,87.31,-0.69,-0.07,0.00,0.72
20.854,Pre-Flight,0.00,0.00,-0.19,0.00,0.00,0.04,-0.06,0.02,-0.06,858.03,38.62,-0.62,0.0000000000,0.0000000000,0.00,0.00,0.00,0.00,0.00,00:00:00,0,-0.06,0.02,-0.06,359.25,5.62,87.38,-0.69,-0.07,0.00,0.72
20.954,Pre-Flight,0.00,0.00,0.03,0.00,0.00,0.23,0.16,-0.02,0.16,858.02,38.62,0.10,0.0000000000,0.0000000000,0.00,0.00,0.00,0.00,0.00,00:00:00,0,0.16,-0.02,0.16,359.31,5.69,87.31,-0.69,-0.07,0.00,0.72
21.054,Pre-Flight,0.00,0.00,0.04,0.00,0.00,0.01,0.12,-0.01,0.12,857.98,38.62,0.14,0.0000000000,0.0000000000,0.00,0.00,0.00,0.00,0.00,00:00:00,0,0.12,-0.01,0.12,359.31,5.69,87.31,-0.69,-0.07,0.00,0.72
21.154,Pre-Flight,0.00,0.00,-0.27,0.00,0.00,-2.04,-0.17,-0.03,-0.17,858.01,38.62,-0.89,0.0000000000,0.0000000000,0.00,0.00,0.00,0.00,0.00,00:00:00,0,-0.17,-0.03,-0.17,359.25,5.69,87.31,-0.69,-0.07,0.00,0.72
21.254,Pre-Flight,0.00,0.00,-0.37,0.00,0.00,-0.37,-0.10,-0.00,-0.10,858.03,38.62,-1.20,0.0000000000,0.0000000000,0.00,0.00,0.00,0.00,0.00,00:00:00,0,-0.10,-0.00,-0.10,359.19,5.62,87.38,-0.69,-0.07,0.00,0.72
21.354,Pre-Flight,0.00,0.00,-0.43,0.00,0.00,-0.18,0.02,-0.02,0.02,858.04,38.62,-1.41,0.0000000000,0.0000000000,0.00,0.00,0.00,0.00,0.00,00:00:00,0,0.02,-0.02,0.02,359.19,5.62,87.38,-0.69,-0.07,0.00,0.72
21.454,Pre-Flight,0.00,0.00,-0.31,0.00,0.00,0.27,0.07,0.01,0.07,858.05,38.62,-1.01,0.0000000000,0.0000000000,0.00,0.00,0.00,0.00,0.00,00:00:00,0,0.07,0.01,0.07,359.19,5.69,87.38,-0.69,-0.07,0.00,0.72
21.554,Pre-Flight,0.00,0.00,-0.26,0.00,0.00,0.09,0.01,0.01,0.01,858.01,38.62,-0.84,0.0000000000,0.0000000000,0.00,0.00,0.00,0.00,0.00,00:00:00,0,0.01,0.01,0.01,359.19,5.69,87.38,-0.69,-0.07,0.00,0.72
21.654,Pre-Flight,0.00,0.00,-0.45,0.00,0.00,-0.29,0.03,-0.02,0.03,858.04,38.62,-1.47,0.0000000000,0.0000000000,0.00,0.00,0.00,0.00,0.00,00:00:00,0,0.03,-0.02,0.03,359.19,5.69,87.38,-0.69,-0.07,0.00,0.72
21.754,Pre-Flight,0.00,0.00,-0.58,0.00,0.00,-0.17,-0.12,-0.01,-0.12,858.06,38.62,-1.90,0.0000000000,0.0000000000,0.00,0.00,0.00,0.00,0.00,00:00:00,0,-0.12,-0.01,-0.12,359.12,5.69,87.38,-0.69,-0.07,0.01,0.72
21.854,Pre-Flight,0.00,0.00,-0.57,0.00,0.00,0.01,0.04,0.00,0.04,858.07,38.62,-1.88,0.0000000000,0.0000000000,0.00,0.00,0.00,0.00,0.00,00:00:00,0,0.04,0.00,0.04,359.12,5.69,87.38,-0.69,-0.07,0.01,0.72
21.954,Pre-Flight,0.00,0.00,-0.32,0.00,0.00,0.26,0.11,0.01,0.11,858.07,38.62,-1.05,0.0000000000,0.0000000000,0.00,0.00,0.00,0.00,0.00,00:00:00,0,0.11,0.01,0.11,359.12,5.69,87.38,-0.69,-0.07,0.01,0.72
22.054,Pre-Flight,0.00,0.00,-0.15,0.00,0.00,0.16,-0.09,0.03,-0.09,858.01,38.62,-0.49,0.0000000000,0.0000000000,0.00,0.00,0.00,0.00,0.00,00:00:00,0,-0.09,0.03,-0.09,359.06,5.69,87.38,-0.69,-0.07,0.01,0.72
22.154,Pre-Flight,0.00,0.00,-0.30,0.00,0.00,-0.99,-0.01,0.02,-0.01,858.04,38.62,-0.99,0.0000000000,0.0000000000,0.00,0.00,0.00,0.00,0.00,00:00:00,0,-0.01,0.02,-0.01,359.12,5.69,87.38,-0.69,-0.07,0.01,0.72
22.254,Pre-Flight,0.00,0.00,-0.39,0.00,0.00,-0.34,0.04,0.01,0.04,858.03,38.62,-1.28,0.0000000000,0.0000000000,0.00,0.00,0.00,0.00,0.00,00:00:00,0,0.04,0.01,0.04,359.06,5.69,87.38,-0.69,-0.07,0.01,0.72
22.354,Pre-Flight,0.00,0.00,-0.31,0.00,0.00,0.23,-0.01,0.02,-0.01,858.04,38.62,-1.01,0.0000000000,0.0000000000,0.00,0.00,0.00,0.00,0.00,00:00:00,0,-0.01,0.02,-0.01,359.06,5.69,87.38,-0.69,-0.07,0.01,0.72
22.454,Pre-Flight,0.00,0.00,0.02,0.00,0.00,0.73,0.15,0.01,0.15,858.04,38.62,0.08,0.0000000000,0.0000000000,0.00,0.00,0.00,0.00,0.00,00:00:00,0,0.15,0.01,0.15,359.06,5.69,87.38,-0.69,-0.07,0.01,0.72
22.554,Pre-Flight,0.00,0.00,0.23,0.00,0.00,0.37,0.03,0.02,0.03,857.99,38.62,0.76,0.0000000000,0.0000000000,0.00,0.00,0.00,0.00,0.00,00:00:00,0,0.03,0.02,0.03,359.06,5.69,87.38,-0.69,-0.07,0.01,0.72
22.654,Pre-Flight,0.00,0.00,0.13,0.00,0.00,-0.15,-0.19,-0.01,-0.19,858.00,38.62,0.43,0.0000000000,0.0000000000,0.00,0.00,0.00,0.00,0.00,00:00:00,0,-0.19,-0.01,-0.19,359.00,5.69,87.38,-0.69,-0.07,0.01,0.72
22.754,Pre-Flight,0.00,0.00,0.07,0.00,0.00,-0.07,0.09,0.01,0.09,858.01,38.62,0.24,0.0000000000,0.0000000000,0.00,0.00,0.00,0.00,0.00,00:00:00,0,0.09,0.01,0.09,359.06,5.69,87.38,-0.69,-0.07,0.01,0.72
22.854,Pre-Flight,0.00,0.00,0.04,0.00,0.00,-0.05,-0.02,0.01,-0.02,858.03,38.62,0.12,0.0000000000,0.0000000000,0.00,0.00,0.00,0.00,0.00,00:00:00,0,-0.02,0.01,-0.02,359.06,5.69,87.38,-0.69,-0.07,0.01,0.72
22.954,Pre-Flight,0.00,0.00,0.35,0.00,0.00,0.33,0.05,0.03,0.05,858.02,38.62,1.15,0.0000000000,0.0000000000,0.00,0.00,0.00,0.00,0.00,00:00:00,0,0.05,0.03,0.05,359.00,5.69,87.38,-0.69,-0.07,0.01,0.72
23.054,Pre-Flight,0.00,0.00,0.43,0.00,0.00,0.07,0.02,0.01,0.02,857.98,38.62,1.41,0.0000000000,0.0000000000,0.00,0.00,0.00,0.00,0.00,00:00:00,0,0.02,0.01,0.02,359.06,5.69,87.38,-0.69,-0.07,0.01,0.72
23.154,Pre-Flight,0.00,0.00,0.33,0.00,0.00,-0.63,-0.11,-0.03,-0.11,857.99,38.62,1.10,0.0000000000,0.0000000000,0.00,0.00,0.00,0.00,0.00,00:00:00,0,-0.11,-0.03,-0.11,359.00,5.69,87.38,-0.69,-0.07,0.01,0.72
23.254,Pre-Flight,0.00,0.00,0.16,0.00,0.00,-0.68,-0.09,-0.02,-0.09,858.02,38.62,0.53,0.0000000000,0.0000000000,0.00,0.00,0.00,0.00,0.00,00:00:00,0,-0.09,-0.02,-0.09,359.00,5.69,87.38,-0.69,-0.07,0.01,0.72
23.354,Pre-Flight,0.00,0.00,-0.01,0.00,0.00,-0.50,0.08,-0.02,0.08,858.03,38.62,-0.05,0.0000000000,0.0000000000,0.00,0.00,0.00,0.00,0.00,00:00:00,0,0.08,-0.02,0.08,359.00,5.69,87.38,-0.69,-0.07,0.01,0.72
23.454,Pre-Flight,0.00,0.00,0.04,0.00,0.00,0.13,0.01,0.01,0.01,858.06,38.62,0.14,0.0000000000,0.0000000000,0.00,0.00,0.00,0.00,0.00,00:00:00,0,0.01,0.01,0.01,359.00,5.69,87.38,-0.69,-0.07,0.01,0.72
23.554,Pre-Flight,0.00,0.00,0.17,0.00,0.00,0.23,-0.05,-0.00,-0.05,858.01,38.62,0.56,0.0000000000,0.0000000000,0.00,0.00,0.00,0.00,0.00,00:00:00,0,-0.05,-0.00,-0.05,359.00,5.69,87.38,-0.69,-0.07,0.01,0.72
23.654,Pre-Flight,0.00,0.00,0.01,0.00,0.00,-0.25,-0.07,-0.01,-0.07,858.02,38.62,0.03,0.0000000000,0.0000000000,0.00,0.00,0.00,0.00,0.00,00:00:00,0,-0.07,-0.01,-0.07,359.00,5.69,87.38,-0.69,-0.07,0.01,0.72
23.754,Pre-Flight,0.00,0.00,-0.05,0.00,0.00,-0.08,-0.03,0.01,-0.03,858.04,38.62,-0.16,0.0000000000,0.0000000000,0.00,0.00,0.00,0.00,0.00,00:00:00,0,-0.03,0.01,-0.03,358.94,5.69,87.38,-0.69,-0.08,0.01,0.72
23.854,Pre-Flight,0.00,0.00,0.00,0.00,0.00,0.06,0.01,0.01,0.01,858.02,38.62,0.01,0.0000000000,0.0000000000,0.00,0.00,0.00,0.00,0.00,00:00:00,0,0.01,0.01,0.01,358.94,5.69,87.38,-0.69,-0.07,0.01,0.72
23.954,Pre-Flight,0.00,0.00,0.25,0.00,0.00,0.26,0.20,-0.00,0.20,858.03,38.62,0.83,0.0000000000,0.0000000000,0.00,0.00,0.00,0.00,0.00,00:00:00,0,0.20,-0.00,0.20,359.00,5.69,87.31,-0.69,-0.07,0.01,0.72
24.054,Pre-Flight,0.00,0.00,0.26,0.00,0.00,0.00,-0.14,0.01,-0.14,857.97,38.62,0.85,0.0000000000,0.0000000000,0.00,0.00,0.00,0.00,0.00,00:00:00,0,-0.14,0.01,-0.14,358.88,5.69,87.31,-0.69,-0.08,0.01,0.72
24.154,Pre-Flight,0.00,0.00,0.01,0.00,0.00,-1.59,-0.09,-0.01,-0.09,858.01,38.63,0.04,0.0000000000,0.0000000000,0.00,0.00,0.00,0.00,0.00,00:00:00,0,-0.09,-0.01,-0.09,358.88,5.69,87.38,-0.69,-0.08,0.01,0.72
24.254,Pre-Flight,0.00,0.00,-0.08,0.00,0.00,-0.37,-0.02,-0.01,-0.02,858.02,38.63,-0.26,0.0000000000,0.0000000000,0.00,0.00,0.00,0.00,0.00,00:00:00,0,-0.02,-0.01,-0.02,358.88,5.69,87.38,-0.69,-0.08,0.01,0.72
24.354,Pre-Flight,0.00,0.00,-0.10,0.00,0.00,-0.07,0.01,0.01,0.01,858.02,38.63,-0.34,0.0000000000,0.0000000000,0.00,0.00,0.00,0.00,0.00,00:00:00,0,0.01,0.01,0.01,358.88,5.69,87.38,-0.69,-0.08,0.01,0.72
24.454,Pre-Flight,0.00,0.00,0.11,0.00,0.00,0.47,0.01,-0.02,0.01,858.02,38.63,0.36,0.0000000000,0.0000000000,0.00,0.00,0.00,0.00,0.00,00:00:00,0,0.01,-0.02,0.01,358.88,5.69,87.38,-0.69,-0.08,0.01,0.72
24.554,Pre-Flight,0.00,0.00,0.08,0.00,0.00,-0.05,0.09,0.01,0.09,857.98,38.62,0.26,0.0000000000,0.0000000000,0.00,0.00,0.00,0.00,0.00,00:00:00,0,0.09,0.01,0.09,358.88,5.69,87.31,-0.69,-0.08,0.01,0.72
24.654,Pre-Flight,0.00,0.00,0.02,0.00,0.00,-0.09,-0.15,-0.01,-0.15,858.02,38.63,0.06,0.0000000000,0.0000000000,0.00,0.00,0.00,0.00,0.00,00:00:00,0,-0.15,-0.01,-0.15,358.81,5.69,87.38,-0.69,-0.08,0.01,0.72
24.754,Pre-Flight,0.00,0.00,-0.06,0.00,0.00,-0.10,-0.08,0.00,-0.08,858.03,38.63,-0.18,0.0000000000,0.0000000000,0.00,0.00,0.00,0.00,0.00,00:00:00,0,-0.08,0.00,-0.08,358.81,5.69,87.38,-0.69,-0.08,0.01,0.72
24.854,Pre-Flight,0.00,0.00,-0.14,0.00,0.00,-0.10,0.20,0.01,0.20,858.02,38.63,-0.46,0.0000000000,0.0000000000,0.00,0.00,0.00,0.00,0.00,00:00:00,0,0.20,0.01,0.20,358.88,5.69,87.38,-0.69,-0.08,0.01,0.72
24.954,Pre-Flight,0.00,0.00,0.10,0.00,0.00,0.25,-0.04,0.02,-0.04,858.03,38.63,0.32,0.0000000000,0.0000000000,0.00,0.00,0.00,0.00,0.00,00:00:00,0,-0.04,0.02,-0.04,358.88,5.69,87.31,-0.69,-0.08,0.01,0.72
25.054,Pre-Flight,0.00,0.00,0.24,0.00,0.00,0.13,-0.02,0.02,-0.02,857.98,38.63,0.78,0.0000000000,0.0000000000,0.00,0.00,0.00,0.00,0.00,00:00:00,0,-0.02,0.02,-0.02,358.88,5.69,87.31,-0.69,-0.08,0.01,0.72
25.154,Pre-Flight,0.00,0.00,-0.01,0.00,0.00,-1.62,0.01,0.00,0.01,858.01,38.63,-0.04,0.0000000000,0.0000000000,0.00,0.00,0.00,0.00,0.00,00:00:00,0,0.01,0.00,0.01,358.88,5.69,87.31,-0.69,-0.08,0.01,0.72
25.254,Pre-Flight,0.00,0.00,-0.17,0.00,0.00,-0.64,-0.06,0.01,-0.06,858.03,38.63,-0.57,0.0000000000,0.0000000000,0.00,0.00,0.00,0.00,0.00,00:00:00,0,-0.06,0.01,-0.06,358.81,5.69,87.31,-0.69,-0.08,0.01,0.72
25.354,Pre-Flight,0.00,0.00,-0.23,0.00,0.00,-0.14,-0.03,0.02,-0.03,858.03,38.63,-0.74,0.0000000000,0.0000000000,0.00,0.00,0.00,0.00,0.00,00:00:00,0,-0.03,0.02,-0.03,358.81,5.69,87.31,-0.69,-0.08,0.01,0.72
25.454,Pre-Flight,0.00,0.00,0.01,0.00,0.00,0.52,0.19,0.02,0.19,858.04,38.63,0.04,0.0000000000,0.0000000000,0.00,0.00,0.00,0.00,0.00,00:00:00,0,0.19,0.02,0.19,358.88,5.69,87.31,-0.69,-0.08,0.01,0.72
25.554,Pre-Flight,0.00,0.00,0.04,0.00,0.00,0.06,-0.12,-0.01,-0.12,858.00,38.63,0.15,0.0000000000,0.0000000000,0.00,0.00,0.00,0.00,0.00,00:00:00,0,-0.12,-0.01,-0.12,358.81,5.69,87.38,-0.69,-0.08,0.01,0.72
25.654,Pre-Flight,0.00,0.00,-0.11,0.00,0.00,-0.24,-0.11,-0.01,-0.11,858.02,38.63,-0.37,0.0000000000,0.0000000000,0.00,0.00,0.00,0.00,0.00,00:00:00,0,-0.11,-0.01,-0.11,358.81,5.69,87.38,-0.69,-0.08,0.01,0.72
25.754,Pre-Flight,0.00,0.00,-0.15,0.00,0.00,-0.04,0.10,-0.01,0.10,858.03,38.63,-0.48,0.0000000000,0.0000000000,0.00,0.00,0.00,0.00,0.00,00:00:00,0,0.10,-0.01,0.10,358.81,5.69,87.31,-0.69,-0.08,0.01,0.72
25.854,Pre-Flight,0.00,0.00,-0.16,0.00,0.00,-0.02,-0.11,0.00,-0.11,858.02,38.63,-0.53,0.0000000000,0.0000000000,0.00,0.00,0.00,0.00,0.00,00:00:00,0,-0.11,0.00,-0.11,358.81,5.69,87.38,-0.69,-0.08,0.01,0.72
25.954,Pre-Flight,0.00,0.00,-0.00,0.00,0.00,0.16,0.04,0.01,0.04,858.03,38.63,-0.01,0.0000000000,0.0000000000,0.00,0.00,0.00,0.00,0.00,00:00:00,0,0.04,0.01,0.04,358.81,5.69,87.31,-0.69,-0.08,0.01,0.72
26.054,Pre-Flight,0.00,0.00,0.17,0.00,0.00,0.17,0.13,-0.01,0.13,857.98,38.63,0.57,0.0000000000,0.0000000000,0.00,0.00,0.00,0.00,0.00,00:00:00,0,0.13,-0.01,0.13,358.88,5.69,87.31,-0.69,-0.08,0.01,0.72
26.154,Pre-Flight,0.00,0.00,-0.01,0.00,0.00,-1.20,-0.18,-0.01,-0.18,858.01,38.63,-0.04,0.0000000000,0.0000000000,0.00,0.00,0.00,0.00,0.00,00:00:00,0,-0.18,-0.01,-0.18,358.75,5.69,87.38,-0.69,-0.08,0.01,0.72
26.254,Pre-Flight,0.00,0.00,-0.05,0.00,0.00,-0.15,0.11,-0.03,0.11,858.01,38.63,-0.16,0.0000000000,0.0000000000,0.00,0.00,0.00,0.00,0.00,00:00:00,0,0.11,-0.03,0.11,358.81,5.69,87.31,-0.69,-0.08,0.01,0.72
26.354,Pre-Flight,0.00,0.00,-0.00,0.00,0.00,0.12,0.03,-0.00,0.03,858.01,38.63,-0.01,0.0000000000,0.0000000000,0.00,0.00,0.00,0.00,0.00,00:00:00,0,0.03,-0.00,0.03,358.81,5.69,87.31,-0.69,-0.08,0.01,0.72
26.454,Pre-Flight,0.00,0.00,0.14,0.00,0.00,0.33,-0.12,0.02,-0.12,858.02,38.63,0.47,0.0000000000,0.0000000000,0.00,0.00,0.00,0.00,0.00,00:00:00,0,-0.12,0.02,-0.12,358.75,5.69,87.38,-0.69,-0.08,0.01,0.72
26.554,Pre-Flight,0.00,0.00,0.20,0.00,0.00,0.10,0.09,-0.01,0.09,857.99,38.63,0.66,0.0000000000,0.0000000000,0.00,0.00,0.00,0.00,0.00,00:00:00,0,0.09,-0.01,0.09,358.81,5.69,87.38,-0.69,-0.08,0.01,0.72
26.654,Pre-Flight,0.00,0.00,0.16,0.00,0.00,-0.06,-0.02,0.00,-0.02,858.01,38.63,0.54,0.0000000000,0.0000000000,0.00,0.00,0.00,0.00,0.00,00:00:00,0,-0.02,0.00,-0.02,358.75,5.69,87.38,-0.69,-0.08,0.01,0.72
26.754,Pre-Flight,0.00,0.00,0.08,0.00,0.00,-0.11,-0.06,-0.01,-0.06,858.00,38.64,0.27,0.0000000000,0.0000000000,0.00,0.00,0.00,0.00,0.00,00:00:00,0,-0.06,-0.01,-0.06,358.75,5.69,87.38,-0.69,-0.08,0.01,0.72
26.854,Pre-Flight,0.00,0.00,-0.07,0.00,0.00,-0.18,0.16,-0.03,0.16,858.01,38.64,-0.22,0.0000000000,0.0000000000,0.00,0.00,0.00,0.00,0.00,00:00:00,0,0.16,-0.03,0.16,358.75,5.69,87.38,-0.69,-0.08,0.01,0.72
26.954,Pre-Flight,0.00,0.00,0.20,0.00,0.00,0.28,0.01,-0.00,0.01,858.03,38.63,0.66,0.0000000000,0.0000000000,0.00,0.00,0.00,0.00,0.00,00:00:00,0,0.01,-0.00,0.01,358.69,5.69,87.38,-0.69,-0.08,0.01,0.72
27.054,Pre-Flight,0.00,0.00,0.45,0.00,0.00,0.23,-0.06,0.01,-0.06,857.97,38.63,1.46,0.0000000000,0.0000000000,0.00,0.00,0.00,0.00,0.00,00:00:00,0,-0.06,0.01,-0.06,358.69,5.69,87.38,-0.69,-0.08,0.01,0.72
27.154,Pre-Flight,0.00,0.00,0.20,0.00,0.00,-1.59,-0.00,0.02,-0.00,857.99,38.64,0.66,0.0000000000,0.0000000000,0.00,0.00,0.00,0.00,0.00,00:00:00,0,-0.00,0.02,-0.00,358.69,5.69,87.38,-0.69,-0.08,0.01,0.72
27.254,Pre-Flight,0.00,0.00,0.07,0.00,0.00,-0.53,0.02,-0.01,0.02,858.00,38.64,0.22,0.0000000000,0.0000000000,0.00,0.00,0.00,0.00,0.00,00:00:00,0,0.02,-0.01,0.02,358.69,5.69,87.38,-0.69,-0.08,0.01,0.72
27.354,Pre-Flight,0.00,0.00,0.05,0.00,0.00,-0.04,-0.01,0.02,-0.01,858.02,38.64,0.17,0.0000000000,0.0000000000,0.00,0.00,0.00,0.00,0.00,00:00:00,0,-0.01,0.02,-0.01,358.62,5.69,87.38,-0.69,-0.08,0.01,0.72
27.454,Pre-Flight,0.00,0.00,0.23,0.00,0.00,0.40,0.06,0.00,0.06,858.01,38.64,0.77,0.0000000000,0.0000000000,0.00,0.00,0.00,0.00,0.00,00:00:00,0,0.06,0.00,0.06,358.62,5.69,87.38,-0.69,-0.08,0.01,0.72
27.554,Pre-Flight,0.00,0.00,0.36,0.00,0.00,0.22,-0.12,-0.01,-0.12,857.96,38.64,1.17,0.0000000000,0.0000000000,0.00,0.00,0.00,0.00,0.00,00:00:00,0,-0.12,-0.01,-0.12,358.62,5.69,87.38,-0.69,-0.08,0.01,0.72
27.654,Pre-Flight,0.00,0.00,0.06,0.00,0.00,-0.45,-0.07,0.00,-0.07,857.99,38.64,0.20,0.0000000000,0.0000000000,0.00,0.00,0.00,0.00,0.00,00:00:00,0,-0.07,0.00,-0.07,358.62,5.69,87.38,-0.69,-0.08,0.01,0.72
27.754,Pre-Flight,0.00,0.00,-0.18,0.00,0.00,-0.32,0.09,-0.01,0.09,858.02,38.64,-0.58,0.0000000000,0.0000000000,0.00,0.00,0.00,0.00,0.00,00:00:00,0,0.09,-0.01,0.09,358.62,5.69,87.38,-0.69,-0.08,0.01,0.72
27.854,Pre-Flight,0.00,0.00,-0.32,0.00,0.00,-0.17,0.05,0.02,0.05,858.03,38.64,-1.06,0.0000000000,0.0000000000,0.00,0.00,0.00,0.00,0.00,00:00:00,0,0.05,0.02,0.05,358.62,5.69,87.38,-0.69,-0.08,0.01,0.72
27.954,Pre-Flight,0.00,0.00,-0.14,0.00,0.00,0.19,0.09,-0.01,0.09,858.04,38.64,-0.47,0.0000000000,0.0000000000,0.00,0.00,0.00,0.00,0.00,00:00:00,0,0.09,-0.01,0.09,358.62,5.69,87.38,-0.69,-0.08,0.01,0.72
28.054,Pre-Flight,0.00,0.00,-0.11,0.00,0.00,0.03,-0.00,-0.01,-0.00,858.01,38.64,-0.37,0.0000000000,0.0000000000,0.00,0.00,0.00,0.00,0.00,00:00:00,0,-0.00,-0.01,-0.00,358.56,5.69,87.38,-0.69,-0.08,0.01,0.72
28.154,Pre-Flight,0.00,0.00,-0.24,0.00,0.00,-0.84,-0.15,-0.00,-0.15,858.02,38.64,-0.80,0.0000000000,0.0000000000,0.00,0.00,0.00,0.00,0.00,00:00:00,0,-0.15,-0.00,-0.15,358.56,5.69,87.38,-0.69,-0.08,0.01,0.72
28.254,Pre-Flight,0.00,0.00,-0.28,0.00,0.00,-0.13,0.01,-0.00,0.01,858.03,38.64,-0.90,0.0000000000,0.0000000000,0.00,0.00,0.00,0.00,0.00,00:00:00,0,0.01,-0.00,0.01,358.56,5.69,87.38,-0.69,-0.08,0.01,0.72
28.354,Pre-Flight,0.00,0.00,-0.27,0.00,0.00,0.02,-0.03,-0.02,-0.03,858.03,38.64,-0.88,0.0000000000,0.0000000000,0.00,0.00,0.00,0.00,0.00,00:00:00,0,-0.03,-0.02,-0.03,358.56,5.69,87.38,-0.69,-0.08,0.01,0.72
28.454,Pre-Flight,0.00,0.00,0.01,0.00,0.00,0.61,0.03,-0.00,0.03,858.03,38.64,0.02,0.0000000000,0.0000000000,0.00,0.00,0.00,0.00,0.00,00:00:00,0,0.03,-0.00,0.03,358.62,5.69,87.38,-0.69,-0.08,0.01,0.72
28.554,Pre-Flight,0.00,0.00,0.15,0.00,0.00,0.27,0.07,-0.01,0.07,857.97,38.64,0.51,0.0000000000,0.0000000000,0.00,0.00,0.00,0.00,0.00,00:00:00,0,0.07,-0.01,0.07,358.62,5.69,87.38,-0.69,-0.08,0.01,0.72
28.654,Pre-Flight,0.00,0.00,0.04,0.00,0.00,-0.17,0.05,-0.03,0.05,857.99,38.64,0.13,0.0000000000,0.0000000000,0.00,0.00,0.00,0.00,0.00,00:00:00,0,0.05,-0.03,0.05,358.56,5.69,87.38,-0.69,-0.08,0.01,0.72
28.754,Pre-Flight,0.00,0.00,-0.19,0.00,0.00,-0.31,-0.04,-0.02,-0.04,858.01,38.64,-0.63,0.0000000000,0.0000000000,0.00,0.00,0.00,0.00,0.00,00:00:00,0,-0.04,-0.02,-0.04,358.56,5.69,87.38,-0.69,-0.08,0.01,0.72
28.854,Pre-Flight,0.00,0.00,-0.21,0.00,0.00,-0.02,0.00,0.01,0.00,858.02,38.64,-0.70,0.0000000000,0.0000000000,0.00,0.00,0.00,0.00,0.00,00:00:00,0,0.00,0.01,0.00,358.56,5.69,87.38,-0.69,-0.08,0.01,0.72
28.954,Pre-Flight,0.00,0.00,0.21,0.00,0.00,0.44,0.00,-0.00,0.00,858.01,38.64,0.68,0.0000000000,0.0000000000,0.00,0.00,0.00,0.00,0.00,00:00:00,0,0.00,-0.00,0.00,358.56,5.69,87.38,-0.69,-0.08,0.01,0.72
29.054,Pre-Flight,0.00,0.00,0.55,0.00,0.00,0.32,-0.08,-0.01,-0.08,857.95,38.64,1.80,0.0000000000,0.0000000000,0.00,0.00,0.00,0.00,0.00,00:00:00,0,-0.08,-0.01,-0.08,358.56,5.69,87.38,-0.69,-0.08,0.01,0.72
29.154,Pre-Flight,0.00,0.00,0.46,0.00,0.00,-0.57,0.13,0.00,0.13,857.96,38.64,1.51,0.0000000000,0.0000000000,0.00,0.00,0.00,0.00,0.00,00:00:00,0,0.13,0.00,0.13,358.62,5.69,87.38,-0.69,-0.08,0.01,0.72
29.254,Pre-Flight,0.00,0.00,0.36,0.00,0.00,-0.42,0.07,-0.01,0.07,857.97,38.65,1.17,0.0000000000,0.0000000000,0.00,0.00,0.00,0.00,0.00,00:00:00,0,0.07,-0.01,0.07,358.62,5.69,87.38,-0.69,-0.08,0.01,0.72
29.354,Pre-Flight,0.00,0.00,0.33,0.00,0.00,-0.07,-0.05,0.00,-0.05,857.98,38.64,1.09,0.0000000000,0.0000000000,0.00,0.00,0.00,0.00,0.00,00:00:00,0,-0.05,0.00,-0.05,358.56,5.69,87.38,-0.69,-0.08,0.01,0.72
29.454,Pre-Flight,0.00,0.00,0.69,0.00,0.00,0.78,0.03,0.00,0.03,857.97,38.64,2.25,0.0000000000,0.0000000000,0.00,0.00,0.00,0.00,0.00,00:00:00,0,0.03,0.00,0.03,358.56,5.69,87.38,-0.69,-0.08,0.01,0.72
29.554,Pre-Flight,0.00,0.00,0.75,0.00,0.00,0.12,-0.12,0.01,-0.12,857.93,38.65,2.47,0.0000000000,0.0000000000,0.00,0.00,0.00,0.00,0.00,00:00:00,0,-0.12,0.01,-0.12,358.50,5.69,87.38,-0.69,-0.08,0.01,0.72
29.654,Pre-Flight,0.00,0.00,0.57,0.00,0.00,-0.27,0.01,0.02,0.01,857.95,38.65,1.88,0.0000000000,0.0000000000,0.00,0.00,0.00,0.00,0.00,00:00:00,0,0.01,0.02,0.01,358.50,5.69,87.38,-0.69,-0.08,0.01,0.72
29.754,Pre-Flight,0.00,0.00,0.38,0.00,0.00,-0.25,0.05,0.01,0.05,857.97,38.65,1.25,0.0000000000,0.0000000000,0.00,0.00,0.00,0.00,0.00,00:00:00,0,0.05,0.01,0.05,358.50,5.69,87.38,-0.69,-0.08,0.01,0.72
29.854,Pre-Flight,0.00,0.00,0.23,0.00,0.00,-0.18,0.03,-0.02,0.03,857.99,38.65,0.74,0.0000000000,0.0000000000,0.00,0.00,0.00,0.00,0.00,00:00:00,0,0.03,-0.02,0.03,358.50,5.69,87.38,-0.69,-0.08,0.01,0.72
29.954,Pre-Flight,0.00,0.00,0.29,0.00,0.00,0.07,-0.17,0.01,-0.17,858.00,38.65,0.95,0.0000000000,0.0000000000,0.00,0.00,0.00,0.00,0.00,00:00:00,0,-0.17,0.01,-0.17,358.44,5.69,87.38,-0.69,-0.08,0.01,0.72
30.054,Pre-Flight,0.00,0.00,0.38,0.00,0.00,0.08,0.14,0.03,0.14,857.96,38.65,1.23,0.0000000000,0.0000000000,0.00,0.00,0.00,0.00,0.00,00:00:00,0,0.14,0.03,0.14,358.50,5.69,87.38,-0.69,-0.08,0.01,0.72
30.154,Pre-Flight,0.00,0.00,0.29,0.00,0.00,-0.59,-0.09,0.01,-0.09,857.97,38.65,0.94,0.0000000000,0.0000000000,0.00,0.00,0.00,0.00,0.00,00:00:00,0,-0.09,0.01,-0.09,358.44,5.69,87.38,-0.69,-0.08,0.01,0.72
30.254,Pre-Flight,0.00,0.00,0.34,0.00,0.00,0.22,-0.03,-0.00,-0.03,857.97,38.65,1.12,0.0000000000,0.0000000000,0.00,0.00,0.00,0.00,0.00,00:00:00,0,-0.03,-0.00,-0.03,358.50,5.69,87.38,-0.69,-0.08,0.01,0.72
30.354,Pre-Flight,0.00,0.00,0.25,0.00,0.00,-0.27,-0.03,-0.01,-0.03,857.96,38.65,0.81,0.0000000000,0.0000000000,0.00,0.00,0.00,0.00,0.00,00:00:00,0,-0.03,-0.01,-0.03,358.50,5.69,87.38,-0.69,-0.08,0.01,0.72
30.454,Pre-Flight,0.00,0.00,0.31,0.00,0.00,0.14,-0.03,0.02,-0.03,857.98,38.65,1.01,0.0000000000,0.0000000000,0.00,0.00,0.00,0.00,0.00,00:00:00,0,-0.03,0.02,-0.03,358.44,5.62,87.38,-0.69,-0.08,0.01,0.72
30.554,Pre-Flight,0.00,0.00,0.31,0.00,0.00,0.00,0.01,0.01,0.01,857.93,38.65,1.01,0.0000000000,0.0000000000,0.00,0.00,0.00,0.00,0.00,00:00:00,0,0.01,0.01,0.01,358.44,5.62,87.38,-0.69,-0.08,0.01,0.72
30.654,Pre-Flight,0.00,0.00,0.13,0.00,0.00,-0.28,0.09,0.03,0.09,857.95,38.65,0.42,0.0000000000,0.0000000000,0.00,0.00,0.00,0.00,0.00,00:00:00,0,0.09,0.03,0.09,358.44,5.69,87.38,-0.69,-0.08,0.01,0.72
30.754,Pre-Flight,0.00,0.00,-0.03,0.00,0.00,-0.21,-0.13,0.01,-0.13,857.97,38.65,-0.10,0.0000000000,0.0000000000,0.00,0.00,0.00,0.00,0.00,00:00:00,0,-0.13,0.01,-0.13,358.38,5.69,87.38,-0.69,-0.08,0.01,0.72
30.854,Pre-Flight,0.00,0.00,-0.11,0.00,0.00,-0.09,-0.10,0.00,-0.10,857.97,38.65,-0.35,0.0000000000,0.0000000000,0.00,0.00,0.00,0.00,0.00,00:00:00,0,-0.10,0.00,-0.10,358.38,5.69,87.38,-0.69,-0.08,0.01,0.72
30.954,Pre-Flight,0.00,0.00,0.09,0.00,0.00,0.21,0.05,0.00,0.05,857.98,38.65,0.30,0.0000000000,0.0000000000,0.00,0.00,0.00,0.00,0.00,00:00:00,0,0.05,0.00,0.05,358.38,5.69,87.38,-0.69,-0.08,0.01,0.72
31.054,Pre-Flight,0.00,0.00,0.09,0.00,0.00,-0.00,-0.06,0.01,-0.06,857.94,38.65,0.29,0.0000000000,0.0000000000,0.00,0.00,0.00,0.00,0.00,00:00:00,0,-0.06,0.01,-0.06,358.38,5.69,87.38,-0.69,-0.08,0.01,0.72
31.154,Pre-Flight,0.00,0.00,-0.05,0.00,0.00,-0.89,0.00,0.01,0.00,857.97,38.65,-0.16,0.0000000000,0.0000000000,0.00,0.00,0.00,0.00,0.00,00:00:00,0,0.00,0.01,0.00,358.44,5.69,87.38,-0.69,-0.08,0.01,0.72
31.254,Pre-Flight,0.00,0.00,-0.19,0.00,0.00,-0.56,0.08,0.01,0.08,857.99,38.65,-0.62,0.0000000000,0.0000000000,0.00,0.00,0.00,0.00,0.00,00:00:00,0,0.08,0.01,0.08,358.44,5.69,87.38,-0.69,-0.08,0.01,0.72
31.354,Pre-Flight,0.00,0.00,-0.26,0.00,0.00,-0.20,-0.13,0.00,-0.13,857.98,38.65,-0.85,0.0000000000,0.0000000000,0.00,0.00,0.00,0.00,0.00,00:00:00,0,-0.13,0.00,-0.13,358.38,5.69,87.38,-0.69,-0.08,0.01,0.72
31.454,Pre-Flight,0.00,0.00,-0.03,0.00,0.00,0.50,-0.04,0.01,-0.04,857.99,38.65,-0.11,0.0000000000,0.0000000000,0.00,0.00,0.00,0.00,0.00,00:00:00,0,-0.04,0.01,-0.04,358.44,5.69,87.38,-0.69,-0.08,0.01,0.72
31.554,Pre-Flight,0.00,0.00,0.08,0.00,0.00,0.20,0.09,0.01,0.09,857.94,38.65,0.27,0.0000000000,0.0000000000,0.00,0.00,0.00,0.00,0.00,00:00:00,0,0.09,0.01,0.09,358.44,5.69,87.38,-0.69,-0.08,0.01,0.72
31.654,Pre-Flight,0.00,0.00,-0.22,0.00,0.00,-0.47,-0.04,0.00,-0.04,857.98,38.66,-0.74,0.0000000000,0.0000000000,0.00,0.00,0.00,0.00,0.00,00:00:00,0,-0.04,0.00,-0.04,358.44,5.69,87.38,-0.69,-0.08,0.01,0.72
31.754,Pre-Flight,0.00,0.00,-0.32,0.00,0.00,-0.13,0.10,-0.01,0.10,858.00,38.66,-1.06,0.0000000000,0.0000000000,0.00,0.00,0.00,0.00,0.00,00:00:00,0,0.10,-0.01,0.10,358.44,5.69,87.38,-0.69,-0.08,0.01,0.72
31.854,Pre-Flight,0.00,0.00,-0.43,0.00,0.00,-0.12,0.07,-0.01,0.07,858.01,38.66,-1.40,0.0000000000,0.0000000000,0.00,0.00,0.00,0.00,0.00,00:00:00,0,0.07,-0.01,0.07,358.44,5.69,87.38,-0.69,-0.08,0.01,0.72
31.954,Pre-Flight,0.00,0.00,-0.20,0.00,0.00,0.24,-0.13,-0.02,-0.13,858.01,38.66,-0.66,0.0000000000,0.0000000000,0.00,0.00,0.00,0.00,0.00,00:00:00,0,-0.13,-0.02,-0.13,358.38,5.69,87.38,-0.69,-0.08,0.01,0.72
32.054,Pre-Flight,0.00,0.00,0.01,0.00,0.00,0.20,0.04,-0.00,0.04,857.95,38.66,0.03,0.0000000000,0.0000000000,0.00,0.00,0.00,0.00,0.00,00:00:00,0,0.04,-0.00,0.04,358.38,5.69,87.38,-0.69,-0.08,0.01,0.72
32.154,Pre-Flight,0.00,0.00,-0.27,0.00,0.00,-1.83,0.14,0.01,0.14,857.98,38.66,-0.89,0.0000000000,0.0000000000,0.00,0.00,0.00,0.00,0.00,00:00:00,0,0.14,0.01,0.14,358.38,5.69,87.38,-0.69,-0.08,0.01,0.72
32.254,Pre-Flight,0.00,0.00,-0.46,0.00,0.00,-0.75,-0.10,-0.01,-0.10,858.00,38.66,-1.52,0.0000000000,0.0000000000,0.00,0.00,0.00,0.00,0.00,00:00:00,0,-0.10,-0.01,-0.10,358.31,5.69,87.38,-0.69,-0.08,0.01,0.72
32.354,Pre-Flight,0.00,0.00,-0.47,0.00,0.00,-0.02,0.01,-0.01,0.01,858.01,38.66,-1.55,0.0000000000,0.0000000000,0.00,0.00,0.00,0.00,0.00,00:00:00,0,0.01,-0.01,0.01,358.38,5.69,87.38,-0.69,-0.08,0.01,0.72
32.454,Pre-Flight,0.00,0.00,-0.35,0.00,0.00,0.26,0.15,-0.02,0.15,858.02,38.66,-1.15,0.0000000000,0.0000000000,0.00,0.00,0.00,0.00,0.00,00:00:00,0,0.15,-0.02,0.15,358.38,5.69,87.38,-0.69,-0.08,0.01,0.72
32.554,Pre-Flight,0.00,0.00,-0.27,0.00,0.00,0.15,-0.06,0.00,-0.06,857.98,38.66,-0.88,0.0000000000,0.0000000000,0.00,0.00,0.00,0.00,0.00,00:00:00,0,-0.06,0.00,-0.06,358.31,5.69,87.38,-0.69,-0.08,0.01,0.72
32.654,Pre-Flight,0.00,0.00,-0.51,0.00,0.00,-0.37,0.06,0.02,0.06,858.01,38.66,-1.68,24.2390782000,-114.8093585000,3579.25,0.00,0.00,0.00,0.00,00:00:00,0,0.06,0.02,0.06,358.31,5.69,87.38,-0.69,-0.08,0.01,0.72
32.754,Pre-Flight,0.00,0.00,-0.61,0.00,0.00,-0.13,0.00,-0.00,0.00,858.03,38.66,-2.00,24.2390656000,-114.8092290000,3579.25,0.00,0.00,0.00,0.00,00:00:00,0,0.00,-0.00,0.00,358.31,5.69,87.38,-0.69,-0.08,0.01,0.72
32.854,Pre-Flight,0.00,0.00,-0.65,0.00,0.00,-0.04,-0.16,-0.01,-0.16,858.04,38.66,-2.12,24.2390531000,-114.8090995000,3579.24,0.00,0.00,0.00,0.00,00:00:00,0,-0.16,-0.01,-0.16,358.31,5.69,87.38,-0.69,-0.08,0.01,0.72
32.954,Pre-Flight,0.00,0.00,-0.38,0.00,0.00,0.28,-0.01,0.02,-0.01,858.05,38.66,-1.25,24.2390405000,-114.8089700000,3579.24,0.00,0.00,0.00,0.00,00:00:00,0,-0.01,0.02,-0.01,358.38,5.69,87.38,-0.69,-0.08,0.01,0.72
33.054,Pre-Flight,0.00,0.00,-0.38,0.00,0.00,-0.00,0.22,0.01,0.22,858.00,38.66,-1.26,24.2390279000,-114.8088405000,3579.24,0.00,0.00,0.00,0.00,00:00:00,0,0.22,0.01,0.22,358.44,5.69,87.38,-0.69,-0.08,0.01,0.72
33.154,Pre-Flight,0.00,0.00,-0.41,0.00,0.00,-0.20,-0.02,0.00,-0.02,858.03,38.66,-1.36,24.2390153000,-114.8087110000,3579.23,0.00,0.00,0.00,0.00,00:00:00,0,-0.02,0.00,-0.02,358.38,5.69,87.38,-0.69,-0.08,0.01,0.72
33.254,Pre-Flight,0.00,0.00,-0.41,0.00,0.00,0.00,0.06,0.00,0.06,858.02,38.66,-1.36,24.2390027000,-114.8085815000,3579.23,0.00,0.00,0.00,0.00,00:00:00,0,0.06,0.00,0.06,358.38,5.69,87.38,-0.69,-0.08,0.01,0.72
33.354,Pre-Flight,0.00,0.00,-0.51,0.00,0.00,-0.28,-0.12,0.00,-0.12,858.03,38.66,-1.69,24.2389901000,-114.8084521000,3579.23,0.00,0.00,0.00,0.00,00:00:00,0,-0.12,0.00,-0.12,358.31,5.69,87.38,-0.69,-0.08,0.01,0.72
33.454,Pre-Flight,0.00,0.00,-0.35,0.00,0.00,0.37,-0.09,0.01,-0.09,858.05,38.66,-1.13,24.2389775000,-114.8083227000,3579.22,0.00,0.00,0.00,0.00,00:00:00,0,-0.09,0.01,-0.09,358.31,5.69,87.38,-0.69,-0.08,0.01,0.72
33.554,Pre-Flight,0.00,0.00,-0.27,0.00,0.00,0.13,0.02,0.00,0.02,858.00,38.66,-0.90,24.2389649000,-114.8081933000,3579.22,0.00,0.00,0.00,0.00,00:00:00,0,0.02,0.00,0.02,358.31,5.69,87.38,-0.69,-0.08,0.01,0.72
33.654,Pre-Flight,0.00,0.00,-0.55,0.00,0.00,-0.42,0.14,0.01,0.14,858.04,38.67,-1.80,24.2389523000,-114.8080639000,3579.22,0.00,0.00,0.00,0.00,00:00:00,0,0.14,0.01,0.14,358.38,5.69,87.38,-0.69,-0.08,0.01,0.72
33.754,Pre-Flight,0.00,0.00,-0.71,0.00,0.00,-0.22,0.00,-0.00,0.00,858.07,38.67,-2.34,24.2389397000,-114.8079345000,3579.21,0.00,0.00,0.00,0.00,00:00:00,0,0.00,-0.00,0.00,358.38,5.69,87.38,-0.69,-0.08,0.01,0.72
33.854,Pre-Flight,0.00,0.00,-0.62,0.00,0.00,0.11,0.06,-0.00,0.06,858.07,38.67,-2.03,24.2389272000,-114.8078051000,3579.21,0.00,0.00,0.00,0.00,00:00:00,0,0.06,-0.00,0.06,358.38,5.69,87.38,-0.69,-0.08,0.01,0.72
33.954,Pre-Flight,0.00,0.00,-0.44,0.00,0.00,0.18,0.01,0.01,0.01,858.07,38.67,-1.45,24.2389146000,-114.8076757000,3579.21,0.00,0.00,0.00,0.00,00:00:00,0,0.01,0.01,0.01,358.38,5.69,87.38,-0.69,-0.08,0.01,0.72
34.054,Pre-Flight,0.00,0.00,-0.17,0.00,0.00,0.26,-0.12,0.00,-0.12,858.03,38.67,-0.56,24.2389020000,-114.8075464000,3579.20,0.00,0.00,0.00,0.00,00:00:00,0,-0.12,0.00,-0.12,358.25,5.69,87.38,-0.69,-0.08,0.01,0.72
34.154,Pre-Flight,0.00,0.00,-0.09,0.00,0.00,0.54,0.06,-0.01,0.06,858.02,38.67,-0.29,24.2388894000,-114.8074171000,3579.20,0.00,0.00,0.00,0.00,00:00:00,0,0.06,-0.01,0.06,358.31,5.69,87.38,-0.69,-0.08,0.01,0.72
34.254,Pre-Flight,0.00,0.00,-0.21,0.00,0.00,-0.48,-0.01,-0.00,-0.01,858.03,38.67,-0.69,24.2388768000,-114.8072878000,3579.20,0.00,0.00,0.00,0.00,00:00:00,0,-0.01,-0.00,-0.01,358.31,5.69,87.38,-0.69,-0.08,0.01,0.72
34.354,Pre-Flight,0.00,0.00,-0.22,0.00,0.00,-0.04,-0.11,-0.03,-0.11,858.04,38.67,-0.74,24.2388642000,-114.8071585000,3579.19,0.00,0.00,0.00,0.00,00:00:00,0,-0.11,-0.03,-0.11,358.31,5.69,87.38,-0.69,-0.08,0.01,0.72
34.454,Pre-Flight,0.00,0.00,-0.09,0.00,0.00,0.30,0.19,-0.02,0.19,858.05,38.67,-0.29,24.2388516000,-114.8070292000,3579.19,0.00,0.00,0.00,0.00,00:00:00,0,0.19,-0.02,0.19,358.38,5.69,87.38,-0.69,-0.08,0.01,0.72
34.554,Pre-Flight,0.00,0.00,0.15,0.00,0.00,0.44,-0.05,-0.01,-0.05,858.00,38.67,0.50,24.2388390000,-114.8068999000,3579.18,0.00,0.00,0.00,0.00,00:00:00,0,-0.05,-0.01,-0.05,358.31,5.69,87.38,-0.69,-0.08,0.01,0.72
34.654,Pre-Flight,0.00,0.00,-0.11,0.00,0.00,-0.40,-0.07,0.01,-0.07,858.02,38.67,-0.36,24.2388263000,-114.8067707000,3579.18,0.00,0.00,0.00,0.00,00:00:00,0,-0.07,0.01,-0.07,358.31,5.69,87.38,-0.69,-0.08,0.01,0.72
34.754,Pre-Flight,0.00,0.00,-0.25,0.00,0.00,-0.19,0.05,-0.01,0.05,858.05,38.67,-0.82,24.2388137000,-114.8066414000,3579.18,0.00,0.00,0.00,0.00,00:00:00,0,0.05,-0.01,0.05,358.31,5.69,87.38,-0.69,-0.08,0.01,0.72
34.854,Pre-Flight,0.00,0.00,-0.25,0.00,0.00,0.00,-0.06,0.02,-0.06,858.06,38.67,-0.82,24.2388011000,-114.8065122000,3579.18,0.00,0.00,0.00,0.00,00:00:00,0,-0.06,0.02,-0.06,358.31,5.69,87.38,-0.69,-0.08,0.01,0.72
34.954,Pre-Flight,0.00,0.00,-0.01,0.00,0.00,0.25,-0.03,0.01,-0.03,858.05,38.67,-0.03,24.2387885000,-114.8063830000,3579.17,0.00,0.00,0.00,0.00,00:00:00,0,-0.03,0.01,-0.03,358.31,5.69,87.38,-0.69,-0.08,0.01,0.72
35.054,Pre-Flight,0.00,0.00,0.13,0.00,0.00,0.13,0.21,-0.03,0.21,858.01,38.67,0.43,24.2387759000,-114.8062538000,3579.17,0.00,0.00,0.00,0.00,00:00:00,0,0.21,-0.03,0.21,358.38,5.69,87.38,-0.69,-0.08,0.01,0.72
35.154,Pre-Flight,0.00,0.00,0.07,0.00,0.00,-0.40,0.01,-0.00,0.01,858.03,38.67,0.22,24.2387633000,-114.8061246000,3579.16,0.00,0.00,0.00,0.00,00:00:00,0,0.01,-0.00,0.01,358.31,5.69,87.38,-0.69,-0.08,0.01,0.72
35.254,Pre-Flight,0.00,0.00,-0.07,0.00,0.00,-0.53,-0.03,0.01,-0.03,858.04,38.67,-0.22,24.2387507000,-114.8059955000,3579.16,0.00,0.00,0.00,0.00,00:00:00,0,-0.03,0.01,-0.03,358.31,5.69,87.38,-0.69,-0.08,0.01,0.72
35.354,Pre-Flight,0.00,0.00,-0.07,0.00,0.00,-0.02,0.01,-0.03,0.01,858.06,38.67,-0.24,24.2387381000,-114.8058663000,3579.16,0.00,0.00,0.00,0.00,00:00:00,0,0.01,-0.03,0.01,358.31,5.69,87.38,-0.69,-0.08,0.01,0.72
35.454,Pre-Flight,0.00,0.00,0.17,0.00,0.00,0.54,-0.09,0.00,-0.09,858.05,38.67,0.56,24.2387255000,-114.8057372000,3579.15,0.00,0.00,0.00,0.00,00:00:00,0,-0.09,0.00,-0.09,358.31,5.69,87.38,-0.69,-0.08,0.01,0.72
35.554,Pre-Flight,0.00,0.00,0.24,0.00,0.00,0.13,0.06,-0.02,0.06,858.00,38.67,0.80,24.2387129000,-114.8056081000,3579.15,0.00,0.00,0.00,0.00,00:00:00,0,0.06,-0.02,0.06,358.38,5.69,87.38,-0.69,-0.08,0.01,0.72
35.654,Pre-Flight,0.00,0.00,0.03,0.00,0.00,-0.33,0.18,-0.01,0.18,858.03,38.67,0.10,24.2387002000,-114.8054790000,3579.15,0.00,0.00,0.00,0.00,00:00:00,0,0.18,-0.01,0.18,358.38,5.69,87.38,-0.69,-0.08,0.01,0.72
35.754,Pre-Flight,0.00,0.00,-0.23,0.00,0.00,-0.35,-0.01,-0.01,-0.01,858.05,38.67,-0.76,24.2386876000,-114.8053499000,3579.14,0.00,0.00,0.00,0.00,00:00:00,0,-0.01,-0.01,-0.01,358.31,5.69,87.38,-0.69,-0.08,0.01,0.72
35.854,Pre-Flight,0.00,0.00,-0.42,0.00,0.00,-0.22,-0.06,0.00,-0.06,858.07,38.67,-1.38,26.2309849000,-117.1452092000,4149.49,0.00,0.00,0.00,0.00,00:00:00,0,-0.06,0.00,-0.06,358.31,5.69,87.38,-0.69,-0.08,0.01,0.72
35.954,Pre-Flight,0.00,0.00,-0.19,0.00,0.00,0.24,-0.02,0.02,-0.02,858.08,38.68,-0.61,26.2309205000,-117.1450631000,4149.48,0.00,0.00,0.00,0.00,00:00:00,0,-0.02,0.02,-0.02,358.31,5.69,87.38,-0.69,-0.08,0.01,0.72
36.054,Pre-Flight,0.00,0.00,-0.07,0.00,0.00,0.11,-0.06,0.02,-0.06,858.03,38.68,-0.23,26.2308562000,-117.1449170000,4149.46,0.00,0.00,0.00,0.00,00:00:00,0,-0.06,0.02,-0.06,358.31,5.69,87.38,-0.69,-0.08,0.01,0.72
36.154,Pre-Flight,0.00,0.00,-0.24,0.00,0.00,-1.12,0.08,0.01,0.08,858.05,38.68,-0.80,24.2386371000,-114.8048336000,3579.13,0.00,0.00,0.00,0.00,00:00:00,0,0.08,0.01,0.08,358.38,5.69,87.38,-0.69,-0.08,0.01,0.72
36.254,Pre-Flight,0.00,0.00,-0.35,0.00,0.00,-0.42,0.08,-0.01,0.08,858.07,38.68,-1.14,24.2386245000,-114.8047046000,3579.13,0.00,0.00,0.00,0.00,00:00:00,0,0.08,-0.01,0.08,358.38,5.69,87.38,-0.69,-0.08,0.01,0.72
36.354,Pre-Flight,0.00,0.00,-0.41,0.00,0.00,-0.16,-0.05,0.00,-0.05,858.08,38.68,-1.33,24.2386119000,-114.8045756000,3579.12,0.00,0.00,0.00,0.00,00:00:00,0,-0.05,0.00,-0.05,358.31,5.69,87.38,-0.69,-0.08,0.01,0.72
36.454,Pre-Flight,0.00,0.00,-0.19,0.00,0.00,0.48,0.00,0.00,0.00,858.08,38.68,-0.62,24.2385993000,-114.8044466000,3579.12,0.00,0.00,0.00,0.00,00:00:00,0,0.00,0.00,0.00,358.31,5.69,87.38,-0.69,-0.08,0.01,0.72
36.554,Pre-Flight,0.00,0.00,-0.06,0.00,0.00,0.23,0.05,0.00,0.05,858.02,38.68,-0.19,24.2385866000,-114.8043177000,3579.11,0.00,0.00,0.00,0.00,00:00:00,0,0.05,0.00,0.05,358.31,5.69,87.38,-0.69,-0.08,0.01,0.72
36.654,Pre-Flight,0.00,0.00,-0.23,0.00,0.00,-0.26,-0.07,0.04,-0.07,858.06,38.68,-0.75,24.2385740000,-114.8041887000,3579.11,0.00,0.00,0.00,0.00,00:00:00,0,-0.07,0.04,-0.07,358.25,5.69,87.38,-0.69,-0.08,0.01,0.72
36.754,Pre-Flight,0.00,0.00,-0.36,0.00,0.00,-0.18,-0.04,-0.00,-0.04,858.06,38.68,-1.19,24.2385614000,-114.8040598000,3579.11,0.00,0.00,0.00,0.00,00:00:00,0,-0.04,-0.00,-0.04,358.31,5.69,87.38,-0.69,-0.08,0.01,0.72
36.854,Pre-Flight,0.00,0.00,-0.31,0.00,0.00,0.06,-0.02,0.02,-0.02,858.07,38.68,-1.03,24.2385487000,-114.8039308000,3579.11,0.00,0.00,0.00,0.00,00:00:00,0,-0.02,0.02,-0.02,358.31,5.69,87.38,-0.69,-0.08,0.01,0.72
36.954,Pre-Flight,0.00,0.00,-0.04,0.00,0.00,0.29,0.05,0.02,0.05,858.06,38.68,-0.13,24.2385361000,-114.8038019000,3579.10,0.00,0.00,0.00,0.00,00:00:00,0,0.05,0.02,0.05,358.31,5.69,87.38,-0.69,-0.08,0.01,0.72
37.054,Pre-Flight,0.00,0.00,0.03,0.00,0.00,0.06,0.14,0.00,0.14,858.03,38.68,0.09,24.2385235000,-114.8036730000,3579.10,0.00,0.00,0.00,0.00,00:00:00,0,0.14,0.00,0.14,358.31,5.69,87.38,-0.69,-0.08,0.01,0.72
37.154,Pre-Flight,0.00,0.00,0.01,0.00,0.00,-0.11,-0.04,-0.01,-0.04,858.05,38.68,0.03,24.2385109000,-114.8035441000,3579.09,0.00,0.00,0.00,0.00,00:00:00,0,-0.04,-0.01,-0.04,358.25,5.69,87.38,-0.69,-0.08,0.01,0.72
37.254,Pre-Flight,0.00,0.00,0.05,0.00,0.00,0.16,-0.10,0.03,-0.10,858.05,38.68,0.16,22.1214163000,-112.4371574000,3010.69,0.00,0.00,0.00,0.00,00:00:00,0,-0.10,0.03,-0.10,358.25,5.69,87.38,-0.69,-0.08,0.01,0.72
37.354,Pre-Flight,0.00,0.00,-0.00,0.00,0.00,-0.15,-0.06,0.00,-0.06,858.05,38.68,-0.01,24.1622832000,-114.7160743000,3557.94,0.00,0.00,0.00,0.00,00:00:00,0,-0.06,0.00,-0.06,358.25,5.69,87.38,-0.69,-0.08,0.01,0.72
37.454,Pre-Flight,0.00,0.00,0.14,0.00,0.00,0.31,-0.03,0.02,-0.03,858.05,38.68,0.45,24.2384729000,-114.8031576000,3579.08,0.00,0.00,0.00,0.00,00:00:00,0,-0.03,0.02,-0.03,358.25,5.69,87.38,-0.69,-0.08,0.01,0.72
37.554,Pre-Flight,0.00,0.00,0.21,0.00,0.00,0.14,0.10,0.01,0.10,858.02,38.68,0.70,24.2384603000,-114.8030288000,3579.08,0.00,0.00,0.00,0.00,00:00:00,0,0.10,0.01,0.10,358.25,5.69,87.38,-0.69,-0.08,0.01,0.72
37.654,Pre-Flight,0.00,0.00,0.09,0.00,0.00,-0.19,0.16,-0.02,0.16,858.04,38.68,0.29,22.1215854000,-112.4367047000,3010.73,0.00,0.00,0.00,0.00,00:00:00,0,0.16,-0.02,0.16,358.25,5.69,87.38,-0.69,-0.08,0.01,0.72
37.754,Pre-Flight,0.00,0.00,0.06,0.00,0.00,-0.03,-0.01,-0.04,-0.01,858.05,38.69,0.20,22.1216277000,-112.4365915000,3010.74,0.00,0.00,0.00,0.00,00:00:00,0,-0.01,-0.04,-0.01,358.19,5.69,87.38,-0.69,-0.08,0.01,0.72
37.854,Pre-Flight,0.00,0.00,0.06,0.00,0.00,-0.00,-0.11,0.01,-0.11,858.06,38.69,0.19,22.1216700000,-112.4364784000,3010.76,0.00,0.00,0.00,0.00,00:00:00,0,-0.11,0.01,-0.11,358.19,5.69,87.44,-0.69,-0.08,0.01,0.72
37.954,Pre-Flight,0.00,0.00,0.23,0.00,0.00,0.18,-0.04,-0.00,-0.04,858.06,38.69,0.75,24.1622193000,-114.7153052000,3557.92,0.00,0.00,0.00,0.00,00:00:00,0,-0.04,-0.00,-0.04,358.19,5.69,87.44,-0.69,-0.08,0.01,0.72
38.054,Pre-Flight,0.00,0.00,0.35,0.00,0.00,0.12,-0.07,0.01,-0.07,858.01,38.69,1.16,24.1622086000,-114.7151770000,3557.92,0.00,0.00,0.00,0.00,00:00:00,0,-0.07,0.01,-0.07,358.19,5.69,87.44,-0.69,-0.08,0.01,0.72
38.154,Pre-Flight,0.00,0.00,0.09,0.00,0.00,-1.69,0.03,-0.00,0.03,858.04,38.69,0.30,24.1621980000,-114.7150489000,3557.91,0.00,0.00,0.00,0.00,00:00:00,0,0.03,-0.00,0.03,358.19,5.69,87.38,-0.69,-0.08,0.01,0.72
38.254,Pre-Flight,0.00,0.00,-0.06,0.00,0.00,-0.61,0.08,-0.02,0.08,858.06,38.69,-0.20,24.1621873000,-114.7149208000,3557.91,0.00,0.00,0.00,0.00,00:00:00,0,0.08,-0.02,0.08,358.25,5.69,87.38,-0.69,-0.08,0.01,0.72
38.354,Pre-Flight,0.00,0.00,-0.20,0.00,0.00,-0.39,0.04,-0.04,0.04,858.06,38.69,-0.65,22.1218812000,-112.4359130000,3010.81,0.00,0.00,0.00,0.00,00:00:00,0,0.04,-0.04,0.04,358.19,5.69,87.38,-0.69,-0.08,0.01,0.72
38.454,Pre-Flight,0.00,0.00,-0.04,0.00,0.00,0.35,-0.03,0.01,-0.03,858.09,38.69,-0.13,22.1219235000,-112.4357999000,3010.82,0.00,0.00,0.00,0.00,00:00:00,0,-0.03,0.01,-0.03,358.19,5.69,87.44,-0.69,-0.08,0.01,0.72
38.554,Pre-Flight,0.00,0.00,0.06,0.00,0.00,0.18,-0.06,-0.03,-0.06,858.03,38.69,0.19,22.1219657000,-112.4356869000,3010.83,0.00,0.00,0.00,0.00,00:00:00,0,-0.06,-0.03,-0.06,358.12,5.69,87.44,-0.69,-0.08,0.01,0.72
38.654,Pre-Flight,0.00,0.00,-0.08,0.00,0.00,-0.21,-0.02,0.02,-0.02,858.05,38.69,-0.25,22.1220080000,-112.4355739000,3010.84,0.00,0.00,0.00,0.00,00:00:00,0,-0.02,0.02,-0.02,358.19,5.69,87.44,-0.69,-0.08,0.01,0.72
38.754,Pre-Flight,0.00,0.00,-0.22,0.00,0.00,-0.18,0.03,-0.00,0.03,858.06,38.69,-0.71,22.1220502000,-112.4354609000,3010.85,0.00,0.00,0.00,0.00,00:00:00,0,0.03,-0.00,0.03,358.19,5.69,87.44,-0.69,-0.08,0.01,0.72
38.854,Pre-Flight,0.00,0.00,-0.30,0.00,0.00,-0.10,0.03,-0.00,0.03,858.07,38.69,-0.98,22.1220924000,-112.4353479000,3010.86,0.00,0.00,0.00,0.00,00:00:00,0,0.03,-0.00,0.03,358.19,5.69,87.44,-0.69,-0.08,0.01,0.72
38.954,Pre-Flight,0.00,0.00,-0.14,0.00,0.00,0.16,0.02,-0.00,0.02,858.08,38.69,-0.47,22.1221347000,-112.4352349000,3010.88,0.00,0.00,0.00,0.00,00:00:00,0,0.02,-0.00,0.02,358.19,5.69,87.44,-0.69,-0.08,0.01,0.72
39.054,Pre-Flight,0.00,0.00,-0.06,0.00,0.00,0.07,0.06,-0.01,0.06,858.04,38.69,-0.21,22.1221769000,-112.4351220000,3010.89,0.00,0.00,0.00,0.00,00:00:00,0,0.06,-0.01,0.06,358.19,5.69,87.44,-0.69,-0.08,0.01,0.72
39.154,Pre-Flight,0.00,0.00,-0.25,0.00,0.00,-1.21,-0.02,0.01,-0.02,858.06,38.69,-0.82,22.1222191000,-112.4350090000,3010.90,0.00,0.00,0.00,0.00,00:00:00,0,-0.02,0.01,-0.02,358.12,5.69,87.44,-0.69,-0.08,0.01,0.72
39.254,Pre-Flight,0.00,0.00,-0.41,0.00,0.00,-0.63,-0.11,-0.00,-0.11,858.08,38.69,-1.35,22.1222614000,-112.4348961000,3010.91,0.00,0.00,0.00,0.00,00:00:00,0,-0.11,-0.00,-0.11,358.12,5.69,87.44,-0.69,-0.08,0.01,0.72
39.354,Pre-Flight,0.00,0.00,-0.51,0.00,0.00,-0.28,-0.05,-0.01,-0.05,858.10,38.69,-1.67,22.1223036000,-112.4347832000,3010.92,0.00,0.00,0.00,0.00,00:00:00,0,-0.05,-0.01,-0.05,358.12,5.69,87.44,-0.69,-0.08,0.01,0.72
39.454,Pre-Flight,0.00,0.00,-0.19,0.00,0.00,0.72,-0.01,-0.02,-0.01,858.10,38.69,-0.61,22.1223458000,-112.4346703000,3010.93,0.00,0.00,0.00,0.00,00:00:00,0,-0.01,-0.02,-0.01,358.12,5.69,87.44,-0.69,-0.08,0.01,0.72
39.554,Pre-Flight,0.00,0.00,-0.04,0.00,0.00,0.25,0.13,0.02,0.13,858.05,38.69,-0.15,22.1223880000,-112.4345574000,3010.94,0.00,0.00,0.00,0.00,00:00:00,0,0.13,0.02,0.13,358.12,5.69,87.44,-0.69,-0.08,0.01,0.72
39.654,Pre-Flight,0.00,0.00,-0.24,0.00,0.00,-0.30,0.15,0.00,0.15,858.07,38.70,-0.78,22.1224302000,-112.4344445000,3010.95,0.00,0.00,0.00,0.00,00:00:00,0,0.15,0.00,0.15,358.12,5.69,87.44,-0.69,-0.08,0.01,0.72
39.754,Pre-Flight,0.00,0.00,-0.37,0.00,0.00,-0.17,0.03,-0.00,0.03,858.08,38.70,-1.20,22.1224725000,-112.4343316000,3010.96,0.00,0.00,0.00,0.00,00:00:00,0,0.03,-0.00,0.03,358.06,5.69,87.44,-0.69,-0.08,0.01,0.72
39.854,Pre-Flight,0.00,0.00,-0.47,0.00,0.00,-0.12,-0.12,-0.02,-0.12,858.09,38.70,-1.55,22.1225147000,-112.4342188000,3010.97,0.00,0.00,0.00,0.00,00:00:00,0,-0.12,-0.02,-0.12,358.06,5.69,87.44,-0.69,-0.08,0.01,0.72
39.954,Pre-Flight,0.00,0.00,-0.16,0.00,0.00,0.32,-0.04,-0.01,-0.04,858.09,38.70,-0.54,22.1225569000,-112.4341059000,3010.99,0.00,0.00,0.00,0.00,00:00:00,0,-0.04,-0.01,-0.04,358.06,5.69,87.44,-0.69,-0.08,0.01,0.72
40.054,Pre-Flight,0.00,0.00,-0.02,0.00,0.00,0.14,0.02,-0.01,0.02,858.04,38.70,-0.06,22.1225991000,-112.4339931000,3011.00,0.00,0.00,0.00,0.00,00:00:00,0,0.02,-0.01,0.02,358.06,5.69,87.44,-0.69,-0.08,0.01,0.72
40.154,Pre-Flight,0.00,0.00,-0.21,0.00,0.00,-1.27,0.10,0.00,0.10,858.07,38.70,-0.70,22.1226413000,-112.4338803000,3011.01,0.00,0.00,0.00,0.00,00:00:00,0,0.10,0.00,0.10,358.06,5.69,87.44,-0.69,-0.08,0.01,0.72
40.254,Pre-Flight,0.00,0.00,-0.22,0.00,0.00,-0.04,0.06,0.00,0.06,858.08,38.70,-0.74,22.1226835000,-112.4337675000,3011.02,0.00,0.00,0.00,0.00,00:00:00,0,0.06,0.00,0.06,358.06,5.69,87.44,-0.69,-0.08,0.01,0.72
40.354,Pre-Flight,0.00,0.00,-0.18,0.00,0.00,0.12,-0.01,-0.01,-0.01,858.08,38.70,-0.59,22.1227257000,-112.4336547000,3011.03,0.00,0.00,0.00,0.00,00:00:00,0,-0.01,-0.01,-0.01,358.06,5.69,87.44,-0.69,-0.08,0.01,0.72
40.454,Pre-Flight,0.00,0.00,0.13,0.00,0.00,0.69,-0.07,-0.02,-0.07,858.08,38.70,0.44,22.1227679000,-112.4335420000,3011.04,0.00,0.00,0.00,0.00,00:00:00,0,-0.07,-0.02,-0.07,358.06,5.69,87.44,-0.69,-0.08,0.01,0.72
40.554,Pre-Flight,0.00,0.00,0.11,0.00,0.00,-0.04,-0.04,0.01,-0.04,858.04,38.70,0.37,22.1228101000,-112.4334292000,3011.05,0.00,0.00,0.00,0.00,00:00:00,0,-0.04,0.01,-0.04,358.06,5.69,87.44,-0.69,-0.08,0.01,0.72
40.654,Pre-Flight,0.00,0.00,-0.09,0.00,0.00,-0.30,0.01,0.00,0.01,858.07,38.70,-0.28,22.1228523000,-112.4333165000,3011.06,0.00,0.00,0.00,0.00,00:00:00,0,0.01,0.00,0.01,358.06,5.69,87.44,-0.69,-0.08,0.01,0.72
40.754,Pre-Flight,0.00,0.00,-0.16,0.00,0.00,-0.10,0.00,0.00,0.00,858.09,38.70,-0.52,22.1228945000,-112.4332038000,3011.07,0.00,0.00,0.00,0.00,00:00:00,0,0.00,0.00,0.00,358.06,5.69,87.44,-0.69,-0.08,0.01,0.72
40.854,Pre-Flight,0.00,0.00,-0.13,0.00,0.00,0.03,0.07,0.01,0.07,858.09,38.70,-0.44,22.1229366000,-112.4330911000,3011.08,0.00,0.00,0.00,0.00,00:00:00,0,0.07,0.01,0.07,358.06,5.69,87.44,-0.69,-0.08,0.01,0.72
40.954,Pre-Flight,0.00,0.00,0.13,0.00,0.00,0.28,0.02,0.01,0.02,858.09,38.70,0.44,22.1229788000,-112.4329784000,3011.09,0.00,0.00,0.00,0.00,00:00:00,0,0.02,0.01,0.02,358.00,5.69,87.44,-0.69,-0.08,0.01,0.72
41.054,Pre-Flight,0.00,0.00,0.23,0.00,0.00,0.09,-0.04,0.02,-0.04,858.03,38.70,0.75,22.1230210000,-112.4328657000,3011.11,0.00,0.00,0.00,0.00,00:00:00,0,-0.04,0.02,-0.04,358.00,5.69,87.44,-0.69,-0.08,0.01,0.72
41.154,Pre-Flight,0.00,0.00,0.08,0.00,0.00,-0.97,-0.02,0.01,-0.02,858.06,38.70,0.26,22.1230632000,-112.4327530000,3011.12,0.00,0.00,0.00,0.00,00:00:00,0,-0.02,0.01,-0.02,358.00,5.69,87.44,-0.69,-0.08,0.01,0.72
41.254,Pre-Flight,0.00,0.00,-0.09,0.00,0.00,-0.67,-0.11,-0.01,-0.11,858.08,38.70,-0.30,22.1231054000,-112.4326404000,3011.13,0.00,0.00,0.00,0.00,00:00:00,0,-0.11,-0.01,-0.11,358.00,5.69,87.44,-0.69,-0.08,0.01,0.72
41.354,Pre-Flight,0.00,0.00,-0.23,0.00,0.00,-0.40,0.01,0.01,0.01,858.09,38.70,-0.77,22.1231475000,-112.4325277000,3011.14,0.00,0.00,0.00,0.00,00:00:00,0,0.01,0.01,0.01,358.00,5.69,87.44,-0.69,-0.08,0.01,0.72
41.454,Pre-Flight,0.00,0.00,-0.01,0.00,0.00,0.50,0.09,0.02,0.09,858.10,38.70,-0.02,19.9746022000,-110.1365232000,2477.00,0.00,0.00,0.00,0.00,00:00:00,0,0.09,0.02,0.09,358.00,5.69,87.44,-0.69,-0.08,0.01,0.72
41.554,Pre-Flight,0.00,0.00,0.17,0.00,0.00,0.32,0.03,0.02,0.03,858.05,38.70,0.56,19.9746996000,-110.1364242000,2477.03,0.00,0.00,0.00,0.00,00:00:00,0,0.03,0.02,0.03,358.00,5.69,87.44,-0.69,-0.08,0.01,0.72
41.654,Pre-Flight,0.00,0.00,-0.10,0.00,0.00,-0.41,0.03,0.01,0.03,858.07,38.71,-0.32,22.1232740000,-112.4321899000,3011.17,0.00,0.00,0.00,0.00,00:00:00,0,0.03,0.01,0.03,357.94,5.69,87.44,-0.69,-0.08,0.01,0.72
41.754,Pre-Flight,0.00,0.00,-0.21,0.00,0.00,-0.14,-0.04,0.01,-0.04,858.09,38.71,-0.67,22.1233162000,-112.4320773000,3011.18,0.00,0.00,0.00,0.00,00:00:00,0,-0.04,0.01,-0.04,357.94,5.69,87.44,-0.69,-0.08,0.01,0.72
41.854,Pre-Flight,0.00,0.00,-0.23,0.00,0.00,-0.02,-0.09,0.00,-0.09,858.10,38.71,-0.74,22.1233584000,-112.4319647000,3011.19,0.00,0.00,0.00,0.00,00:00:00,0,-0.09,0.00,-0.09,357.94,5.69,87.44,-0.69,-0.08,0.01,0.72
41.954,Pre-Flight,0.00,0.00,0.09,0.00,0.00,0.33,-0.06,-0.01,-0.06,858.10,38.71,0.30,19.9750893000,-110.1360280000,2477.12,0.00,0.00,0.00,0.00,00:00:00,0,-0.06,-0.01,-0.06,357.94,5.69,87.44,-0.69,-0.08,0.01,0.72
42.054,Pre-Flight,0.00,0.00,0.15,0.00,0.00,0.05,0.13,0.02,0.13,858.04,38.71,0.48,19.9751867000,-110.1359290000,2477.14,0.00,0.00,0.00,0.00,00:00:00,0,0.13,0.02,0.13,358.00,5.69,87.44,-0.69,-0.08,0.01,0.72
42.154,Pre-Flight,0.00,0.00,-0.02,0.00,0.00,-1.10,0.13,0.01,0.13,858.07,38.71,-0.07,19.9752841000,-110.1358300000,2477.17,0.00,0.00,0.00,0.00,00:00:00,0,0.13,0.01,0.13,358.00,5.69,87.44,-0.69,-0.08,0.01,0.72
42.254,Pre-Flight,0.00,0.00,-0.09,0.00,0.00,-0.27,-0.02,0.00,-0.02,858.08,38.71,-0.30,19.9753815000,-110.1357310000,2477.19,0.00,0.00,0.00,0.00,00:00:00,0,-0.02,0.00,-0.02,357.94,5.69,87.44,-0.69,-0.08,0.01,0.72
42.354,Pre-Flight,0.00,0.00,-0.10,0.00,0.00,-0.04,-0.07,0.01,-0.07,858.08,38.71,-0.34,19.9754789000,-110.1356320000,2477.21,0.00,0.00,0.00,0.00,00:00:00,0,-0.07,0.01,-0.07,357.94,5.69,87.44,-0.69,-0.08,0.01,0.72
42.454,Pre-Flight,0.00,0.00,0.16,0.00,0.00,0.58,-0.04,-0.01,-0.04,858.09,38.71,0.52,19.9755763000,-110.1355330000,2477.24,0.00,0.00,0.00,0.00,00:00:00,0,-0.04,-0.01,-0.04,357.94,5.69,87.44,-0.69,-0.08,0.01,0.72
42.554,Pre-Flight,0.00,0.00,0.26,0.00,0.00,0.18,-0.03,0.03,-0.03,858.03,38.71,0.85,19.9756736000,-110.1354341000,2477.26,0.00,0.00,0.00,0.00,00:00:00,0,-0.03,0.03,-0.03,357.94,5.69,87.44,-0.69,-0.08,0.01,0.72
42.654,Pre-Flight,0.00,0.00,0.12,0.00,0.00,-0.20,-0.01,0.02,-0.01,858.05,38.71,0.41,22.1236956000,-112.4310646000,3011.28,0.00,0.00,0.00,0.00,00:00:00,0,-0.01,0.02,-0.01,357.94,5.69,87.44,-0.69,-0.08,0.01,0.72
42.754,Pre-Flight,0.00,0.00,0.08,0.00,0.00,-0.05,0.07,-0.02,0.07,858.06,38.71,0.28,22.1237377000,-112.4309522000,3011.29,0.00,0.00,0.00,0.00,00:00:00,0,0.07,-0.02,0.07,357.94,5.69,87.44,-0.69,-0.08,0.01,0.72
42.854,Pre-Flight,0.00,0.00,0.03,0.00,0.00,-0.07,-0.04,-0.01,-0.04,858.07,38.71,0.09,22.1237799000,-112.4308398000,3011.30,0.00,0.00,0.00,0.00,00:00:00,0,-0.04,-0.01,-0.04,357.88,5.69,87.44,-0.69,-0.08,0.01,0.72
42.954,Pre-Flight,0.00,0.00,0.41,0.00,0.00,0.40,0.02,0.00,0.02,858.07,38.71,1.36,22.1238220000,-112.4307274000,3011.31,0.00,0.00,0.00,0.00,00:00:00,0,0.02,0.00,0.02,357.88,5.69,87.44,-0.69,-0.08,0.01,0.72
43.054,Pre-Flight,0.00,0.00,0.53,0.00,0.00,0.11,0.03,-0.01,0.03,858.00,38.71,1.73,22.1238641000,-112.4306149000,3011.32,0.00,0.00,0.00,0.00,00:00:00,0,0.03,-0.01,0.03,357.94,5.69,87.44,-0.69,-0.08,0.01,0.72
43.154,Pre-Flight,0.00,0.00,0.32,0.00,0.00,-1.35,-0.06,0.01,-0.06,858.03,38.72,1.05,22.1239062000,-112.4305026000,3011.33,0.00,0.00,0.00,0.00,00:00:00,0,-0.06,0.01,-0.06,357.88,5.69,87.44,-0.69,-0.08,0.01,0.72
43.254,Pre-Flight,0.00,0.00,0.03,0.00,0.00,-1.14,-0.03,-0.01,-0.03,858.06,38.72,0.10,22.1239484000,-112.4303902000,3011.34,0.00,0.00,0.00,0.00,00:00:00,0,-0.03,-0.01,-0.03,357.88,5.69,87.44,-0.69,-0.08,0.01,0.72
43.354,Pre-Flight,0.00,0.00,0.06,0.00,0.00,0.07,-0.07,-0.02,-0.07,858.07,38.72,0.18,22.1239905000,-112.4302778000,3011.36,0.00,0.00,0.00,0.00,00:00:00,0,-0.07,-0.02,-0.07,357.88,5.69,87.44,-0.69,-0.08,0.01,0.72
43.454,Pre-Flight,0.00,0.00,0.12,0.00,0.00,0.13,-0.07,-0.00,-0.07,858.08,38.72,0.38,22.1240326000,-112.4301655000,3011.37,0.00,0.00,0.00,0.00,00:00:00,0,-0.07,-0.00,-0.07,357.88,5.69,87.44,-0.69,-0.08,0.01,0.72
43.554,Pre-Flight,0.00,0.00,0.28,0.00,0.00,0.29,0.12,0.01,0.12,858.03,38.72,0.92,22.1240747000,-112.4300531000,3011.38,0.00,0.00,0.00,0.00,00:00:00,0,0.12,0.01,0.12,357.88,5.69,87.44,-0.69,-0.08,0.01,0.72
43.654,Pre-Flight,0.00,0.00,0.05,0.00,0.00,-0.35,0.03,0.00,0.03,858.06,38.72,0.17,22.1241169000,-112.4299408000,3011.39,0.00,0.00,0.00,0.00,00:00:00,0,0.03,0.00,0.03,357.88,5.69,87.44,-0.69,-0.08,0.01,0.72
43.754,Pre-Flight,0.00,0.00,-0.10,0.00,0.00,-0.20,-0.02,0.01,-0.02,858.07,38.72,-0.31,22.1241590000,-112.4298285000,3011.40,0.00,0.00,0.00,0.00,00:00:00,0,-0.02,0.01,-0.02,357.88,5.69,87.44,-0.69,-0.08,0.01,0.72
43.854,Pre-Flight,0.00,0.00,-0.04,0.00,0.00,0.07,-0.03,-0.00,-0.03,858.08,38.72,-0.12,22.1242011000,-112.4297162000,3011.41,0.00,0.00,0.00,0.00,00:00:00,0,-0.03,-0.00,-0.03,357.88,5.69,87.44,-0.69,-0.08,0.01,0.72
43.954,Pre-Flight,0.00,0.00,0.44,0.00,0.00,0.50,0.02,-0.01,0.02,858.05,38.72,1.44,22.1242432000,-112.4296039000,3011.42,0.00,0.00,0.00,0.00,00:00:00,0,0.02,-0.01,0.02,357.88,5.69,87.44,-0.69,-0.08,0.01,0.72
44.054,Pre-Flight,0.00,0.00,0.57,0.00,0.00,0.13,-0.05,-0.00,-0.05,857.99,38.72,1.88,22.1242853000,-112.4294917000,3011.43,0.00,0.00,0.00,0.00,00:00:00,0,-0.05,-0.00,-0.05,357.88,5.69,87.44,-0.69,-0.08,0.01,0.72
44.154,Pre-Flight,0.00,0.00,0.40,0.00,0.00,-1.13,0.04,-0.00,0.04,858.02,38.72,1.31,22.1243274000,-112.4293794000,3011.44,0.00,0.00,0.00,0.00,00:00:00,0,0.04,-0.00,0.04,357.88,5.69,87.44,-0.69,-0.08,0.01,0.72
44.254,Pre-Flight,0.00,0.00,0.26,0.00,0.00,-0.55,-0.00,-0.01,-0.00,858.02,38.72,0.85,22.1243695000,-112.4292672000,3011.45,0.00,0.00,0.00,0.00,00:00:00,0,-0.00,-0.01,-0.00,357.88,5.69,87.44,-0.69,-0.08,0.01,0.72
44.354,Pre-Flight,0.00,0.00,0.07,0.00,0.00,-0.55,-0.05,0.01,-0.05,858.04,38.72,0.21,22.1244116000,-112.4291549000,3011.47,0.00,0.00,0.00,0.00,00:00:00,0,-0.05,0.01,-0.05,357.88,5.69,87.44,-0.69,-0.08,0.01,0.72
44.454,Pre-Flight,0.00,0.00,0.34,0.00,0.00,0.61,-0.02,-0.01,-0.02,858.05,38.72,1.12,22.1244537000,-112.4290427000,3011.48,0.00,0.00,0.00,0.00,00:00:00,0,-0.02,-0.01,-0.02,357.88,5.69,87.44,-0.69,-0.08,0.01,0.72
44.554,Pre-Flight,0.00,0.00,0.39,0.00,0.00,0.09,0.07,-0.01,0.07,857.98,38.72,1.29,22.1244958000,-112.4289305000,3011.49,0.00,0.00,0.00,0.00,00:00:00,0,0.07,-0.01,0.07,357.88,5.69,87.44,-0.69,-0.08,0.01,0.72
44.654,Pre-Flight,0.00,0.00,0.29,0.00,0.00,-0.16,-0.02,0.02,-0.02,858.02,38.73,0.94,22.1245379000,-112.4288183000,3011.50,0.00,0.00,0.00,0.00,00:00:00,0,-0.02,0.02,-0.02,357.88,5.69,87.44,-0.69,-0.08,0.01,0.72
44.754,Pre-Flight,0.00,0.00,0.29,0.00,0.00,0.01,0.03,0.01,0.03,858.03,38.73,0.96,22.1245800000,-112.4287062000,3011.51,0.00,0.00,0.00,0.00,00:00:00,0,0.03,0.01,0.03,357.88,5.69,87.44,-0.69,-0.08,0.01,0.72
44.854,Pre-Flight,0.00,0.00,0.19,0.00,0.00,-0.11,-0.02,0.00,-0.02,858.03,38.73,0.64,22.1246221000,-112.4285940000,3011.52,0.00,0.00,0.00,0.00,00:00:00,0,-0.02,0.00,-0.02,357.88,5.69,87.44,-0.69,-0.08,0.01,0.72
44.954,Pre-Flight,0.00,0.00,0.27,0.00,0.00,0.08,-0.02,0.00,-0.02,858.04,38.73,0.88,22.1246641000,-112.4284819000,3011.53,0.00,0.00,0.00,0.00,00:00:00,0,-0.02,0.00,-0.02,357.88,5.69,87.44,-0.69,-0.08,0.01,0.72
45.054,Pre-Flight,0.00,0.00,0.37,0.00,0.00,0.10,-0.02,0.00,-0.02,858.01,38.73,1.21,22.1247062000,-112.4283698000,3011.54,0.00,0.00,0.00,0.00,00:00:00,0,-0.02,0.00,-0.02,357.88,5.69,87.44,-0.69,-0.08,0.01,0.72
45.154,Pre-Flight,0.00,0.00,0.08,0.00,0.00,-1.86,0.05,-0.01,0.05,858.03,38.73,0.28,22.1247483000,-112.4282576000,3011.55,0.00,0.00,0.00,0.00,00:00:00,0,0.05,-0.01,0.05,357.88,5.69,87.44,-0.69,-0.08,0.01,0.72
45.254,Pre-Flight,0.00,0.00,-0.26,0.00,0.00,-1.36,-0.01,0.00,-0.01,858.07,38.73,-0.86,22.1247904000,-112.4281455000,3011.56,0.00,0.00,0.00,0.00,00:00:00,0,-0.01,0.00,-0.01,357.81,5.69,87.44,-0.69,-0.08,0.01,0.72
45.354,Pre-Flight,0.00,0.00,-0.23,0.00,0.00,0.10,0.15,0.01,0.15,858.07,38.73,-0.74,22.1248325000,-112.4280335000,3011.57,0.00,0.00,0.00,0.00,00:00:00,0,0.15,0.01,0.15,357.88,5.69,87.44,-0.69,-0.08,0.01,0.72
45.454,Pre-Flight,0.00,0.00,0.05,0.00,0.00,0.60,-0.10,0.03,-0.10,858.06,38.73,0.16,22.1248745000,-112.4279214000,3011.59,0.00,0.00,0.00,0.00,00:00:00,0,-0.10,0.03,-0.10,357.81,5.69,87.44,-0.69,-0.08,0.01,0.72
45.554,Pre-Flight,0.00,0.00,0.06,0.00,0.00,0.02,-0.13,0.01,-0.13,858.01,38.73,0.20,22.1249166000,-112.4278093000,3011.60,0.00,0.00,0.00,0.00,00:00:00,0,-0.13,0.01,-0.13,357.81,5.69,87.44,-0.69,-0.08,0.01,0.72
45.654,Pre-Flight,0.00,0.00,-0.10,0.00,0.00,-0.24,0.03,0.00,0.03,858.04,38.73,-0.31,19.8940631000,-110.0438384000,2457.86,0.00,0.00,0.00,0.00,00:00:00,0,0.03,0.00,0.03,357.81,5.69,87.44,-0.69,-0.08,0.01,0.72
45.754,Pre-Flight,0.00,0.00,-0.21,0.00,0.00,-0.16,0.02,0.01,0.02,858.04,38.74,-0.70,22.1250007000,-112.4275852000,3011.62,0.00,0.00,0.00,0.00,00:00:00,0,0.02,0.01,0.02,357.81,5.69,87.44,-0.69,-0.08,0.01,0.72
45.854,Pre-Flight,0.00,0.00,-0.34,0.00,0.00,-0.15,-0.01,-0.01,-0.01,858.05,38.74,-1.13,19.8942620000,-110.0436423000,2457.91,0.00,0.00,0.00,0.00,00:00:00,0,-0.01,-0.01,-0.01,357.81,5.69,87.44,-0.69,-0.08,0.01,0.72
45.954,Pre-Flight,0.00,0.00,-0.15,0.00,0.00,0.20,0.15,-0.00,0.15,858.06,38.74,-0.50,19.8943614000,-110.0435443000,2457.93,0.00,0.00,0.00,0.00,00:00:00,0,0.15,-0.00,0.15,357.88,5.69,87.44,-0.69,-0.08,0.01,0.72
46.054,Pre-Flight,0.00,0.00,0.01,0.00,0.00,0.16,-0.03,-0.01,-0.03,858.01,38.74,0.04,19.8944608000,-110.0434463000,2457.95,0.00,0.00,0.00,0.00,00:00:00,0,-0.03,-0.01,-0.03,357.75,5.69,87.44,-0.69,-0.08,0.01,0.72
46.154,Pre-Flight,0.00,0.00,-0.09,0.00,0.00,-0.68,-0.10,0.03,-0.10,858.03,38.74,-0.30,19.8945602000,-110.0433483000,2457.98,0.00,0.00,0.00,0.00,00:00:00,0,-0.10,0.03,-0.10,357.69,5.69,87.44,-0.69,-0.08,0.01,0.72
46.254,Pre-Flight,0.00,0.00,-0.06,0.00,0.00,0.11,-0.03,-0.01,-0.03,858.03,38.74,-0.21,22.1252110000,-112.4270253000,3011.67,0.00,0.00,0.00,0.00,00:00:00,0,-0.03,-0.01,-0.03,357.69,5.69,87.44,-0.69,-0.08,0.01,0.72
46.354,Pre-Flight,0.00,0.00,-0.25,0.00,0.00,-0.53,-0.06,-0.01,-0.06,858.05,38.74,-0.82,19.8947590000,-110.0431524000,2458.02,0.00,0.00,0.00,0.00,00:00:00,0,-0.06,-0.01,-0.06,357.69,5.69,87.44,-0.69,-0.08,0.01,0.72
46.454,Pre-Flight,0.00,0.00,-0.00,0.00,0.00,0.55,-0.05,-0.00,-0.05,858.06,38.74,-0.01,22.1252951000,-112.4268014000,3011.69,0.00,0.00,0.00,0.00,00:00:00,0,-0.05,-0.00,-0.05,357.75,5.69,87.44,-0.69,-0.08,0.01,0.72
46.554,Pre-Flight,0.00,0.00,0.10,0.00,0.00,0.19,0.17,-0.02,0.17,858.01,38.74,0.34,22.1253372000,-112.4266895000,3011.70,0.00,0.00,0.00,0.00,00:00:00,0,0.17,-0.02,0.17,357.81,5.69,87.44,-0.69,-0.08,0.01,0.72
46.654,Pre-Flight,0.00,0.00,-0.11,0.00,0.00,-0.33,0.03,0.01,0.03,858.03,38.74,-0.37,22.1253792000,-112.4265776000,3011.72,0.00,0.00,0.00,0.00,00:00:00,0,0.03,0.01,0.03,357.75,5.69,87.44,-0.69,-0.08,0.01,0.72
46.754,Pre-Flight,0.00,0.00,-0.13,0.00,0.00,-0.03,0.01,-0.00,0.01,858.05,38.74,-0.44,22.1254212000,-112.4264657000,3011.73,0.00,0.00,0.00,0.00,00:00:00,0,0.01,-0.00,0.01,357.75,5.69,87.44,-0.69,-0.08,0.01,0.72
46.854,Pre-Flight,0.00,0.00,-0.22,0.00,0.00,-0.10,-0.07,-0.00,-0.07,858.05,38.74,-0.72,19.8952559000,-110.0426628000,2458.14,0.00,0.00,0.00,0.00,00:00:00,0,-0.07,-0.00,-0.07,357.69,5.69,87.44,-0.69,-0.08,0.01,0.72
46.954,Pre-Flight,0.00,0.00,-0.03,0.00,0.00,0.20,-0.18,-0.00,-0.18,858.07,38.74,-0.10,19.8953553000,-110.0425649000,2458.16,0.00,0.00,0.00,0.00,00:00:00,0,-0.18,-0.00,-0.18,357.69,5.69,87.44,-0.69,-0.08,0.01,0.72
47.054,Pre-Flight,0.00,0.00,0.04,0.00,0.00,0.06,0.02,-0.02,0.02,858.03,38.74,0.12,19.8954547000,-110.0424670000,2458.19,0.00,0.00,0.00,0.00,00:00:00,0,0.02,-0.02,0.02,357.75,5.69,87.44,-0.69,-0.08,0.01,0.72
47.154,Pre-Flight,0.00,0.00,-0.09,0.00,0.00,-0.81,0.26,-0.02,0.26,858.05,38.74,-0.29,19.8955540000,-110.0423692000,2458.21,0.00,0.00,0.00,0.00,00:00:00,0,0.26,-0.02,0.26,357.81,5.69,87.44,-0.69,-0.08,0.01,0.72
47.254,Pre-Flight,0.00,0.00,-0.33,0.00,0.00,-0.94,-0.04,-0.03,-0.04,858.07,38.74,-1.08,19.8956534000,-110.0422713000,2458.24,0.00,0.00,0.00,0.00,00:00:00,0,-0.04,-0.03,-0.04,357.75,5.69,87.38,-0.69,-0.08,0.01,0.72
47.354,Pre-Flight,0.00,0.00,-0.41,0.00,0.00,-0.22,-0.01,0.01,-0.01,858.08,38.75,-1.34,22.1256734000,-112.4257946000,3011.79,0.00,0.00,0.00,0.00,00:00:00,0,-0.01,0.01,-0.01,357.75,5.69,87.38,-0.69,-0.08,0.01,0.72
47.454,Pre-Flight,0.00,0.00,-0.13,0.00,0.00,0.61,-0.03,-0.01,-0.03,858.08,38.75,-0.43,22.1257154000,-112.4256828000,3011.80,0.00,0.00,0.00,0.00,00:00:00,0,-0.03,-0.01,-0.03,357.69,5.69,87.38,-0.69,-0.08,0.01,0.72
47.554,Pre-Flight,0.00,0.00,0.05,0.00,0.00,0.33,-0.11,0.02,-0.11,858.03,38.74,0.18,22.1257575000,-112.4255711000,3011.81,0.00,0.00,0.00,0.00,00:00:00,0,-0.11,0.02,-0.11,357.69,5.69,87.44,-0.69,-0.08,0.01,0.72
47.654,Pre-Flight,0.00,0.00,-0.23,0.00,0.00,-0.43,0.08,-0.02,0.08,858.05,38.75,-0.76,22.1257995000,-112.4254593000,3011.82,0.00,0.00,0.00,0.00,00:00:00,0,0.08,-0.02,0.08,357.75,5.69,87.44,-0.69,-0.08,0.01,0.72
47.754,Pre-Flight,0.00,0.00,-0.40,0.00,0.00,-0.22,0.05,-0.01,0.05,858.07,38.75,-1.30,19.8961502000,-110.0417823000,2458.35,0.00,0.00,0.00,0.00,00:00:00,0,0.05,-0.01,0.05,357.75,5.69,87.38,-0.69,-0.08,0.01,0.72
47.854,Pre-Flight,0.00,0.00,-0.34,0.00,0.00,0.06,-0.01,0.00,-0.01,858.08,38.75,-1.12,19.8962495000,-110.0416845000,2458.38,0.00,0.00,0.00,0.00,00:00:00,0,-0.01,0.00,-0.01,357.75,5.69,87.38,-0.69,-0.08,0.01,0.72
47.954,Pre-Flight,0.00,0.00,0.01,0.00,0.00,0.36,0.10,0.02,0.10,858.07,38.75,0.03,19.8963488000,-110.0415867000,2458.40,0.00,0.00,0.00,0.00,00:00:00,0,0.10,0.02,0.10,357.75,5.69,87.38,-0.69,-0.08,0.01,0.72
48.054,Pre-Flight,0.00,0.00,0.20,0.00,0.00,0.18,-0.05,0.01,-0.05,858.01,38.75,0.65,19.8964482000,-110.0414890000,2458.42,0.00,0.00,0.00,0.00,00:00:00,0,-0.05,0.01,-0.05,357.69,5.69,87.38,-0.69,-0.08,0.01,0.72
48.154,Pre-Flight,0.00,0.00,0.14,0.00,0.00,-0.37,-0.09,0.02,-0.09,858.02,38.75,0.47,19.8965475000,-110.0413913000,2458.45,0.00,0.00,0.00,0.00,00:00:00,0,-0.09,0.02,-0.09,357.69,5.69,87.38,-0.69,-0.08,0.01,0.72
48.254,Pre-Flight,0.00,0.00,0.09,0.00,0.00,-0.19,-0.04,0.02,-0.04,858.03,38.75,0.31,19.8966468000,-110.0412936000,2458.47,0.00,0.00,0.00,0.00,00:00:00,0,-0.04,0.02,-0.04,357.69,5.69,87.38,-0.69,-0.08,0.01,0.72
48.354,Pre-Flight,0.00,0.00,0.02,0.00,0.00,-0.21,-0.06,-0.02,-0.06,858.04,38.75,0.06,19.8967461000,-110.0411959000,2458.49,0.00,0.00,0.00,0.00,00:00:00,0,-0.06,-0.02,-0.06,357.69,5.69,87.38,-0.69,-0.08,0.01,0.72
48.454,Pre-Flight,0.00,0.00,0.19,0.00,0.00,0.37,0.01,0.01,0.01,858.05,38.75,0.62,19.8968455000,-110.0410982000,2458.52,0.00,0.00,0.00,0.00,00:00:00,0,0.01,0.01,0.01,357.69,5.69,87.38,-0.69,-0.08,0.01,0.72
48.554,Pre-Flight,0.00,0.00,0.33,0.00,0.00,0.26,0.20,0.00,0.20,858.01,38.75,1.10,19.8969448000,-110.0410005000,2458.54,0.00,0.00,0.00,0.00,00:00:00,0,0.20,0.00,0.20,357.75,5.69,87.38,-0.69,-0.08,0.01,0.72
48.654,Pre-Flight,0.00,0.00,0.16,0.00,0.00,-0.26,-0.03,0.02,-0.03,858.03,38.75,0.53,19.8970441000,-110.0409028000,2458.57,0.00,0.00,0.00,0.00,00:00:00,0,-0.03,0.02,-0.03,357.62,5.69,87.38,-0.69,-0.08,0.01,0.72
48.754,Pre-Flight,0.00,0.00,0.16,0.00,0.00,-0.01,-0.07,0.03,-0.07,858.04,38.76,0.51,19.8971434000,-110.0408052000,2458.59,0.00,0.00,0.00,0.00,00:00:00,0,-0.07,0.03,-0.07,357.56,5.69,87.38,-0.69,-0.08,0.02,0.72
48.854,Pre-Flight,0.00,0.00,0.27,0.00,0.00,0.14,-0.04,0.01,-0.04,858.04,38.76,0.89,22.1263035000,-112.4241191000,3011.95,0.00,0.00,0.00,0.00,00:00:00,0,-0.04,0.01,-0.04,357.62,5.69,87.38,-0.69,-0.08,0.01,0.72
48.954,Pre-Flight,0.00,0.00,0.37,0.00,0.00,0.11,-0.17,0.02,-0.17,858.03,38.76,1.23,22.1263455000,-112.4240076000,3011.97,0.00,0.00,0.00,0.00,00:00:00,0,-0.17,0.02,-0.17,357.62,5.69,87.38,-0.69,-0.08,0.01,0.72
49.054,Pre-Flight,0.00,0.00,0.46,0.00,0.00,0.09,0.04,0.01,0.04,857.99,38.76,1.52,22.1263874000,-112.4238960000,3011.98,0.00,0.00,0.00,0.00,00:00:00,0,0.04,0.01,0.04,357.62,5.69,87.38,-0.69,-0.08,0.01,0.72
49.154,Pre-Flight,0.00,0.00,0.29,0.00,0.00,-1.16,0.25,-0.02,0.25,858.01,38.76,0.94,22.1264294000,-112.4237844000,3011.99,0.00,0.00,0.00,0.00,00:00:00,0,0.25,-0.02,0.25,357.69,5.69,87.31,-0.69,-0.08,0.01,0.72
49.254,Pre-Flight,0.00,0.00,0.23,0.00,0.00,-0.23,0.01,-0.01,0.01,858.02,38.76,0.75,22.1264714000,-112.4236729000,3012.00,0.00,0.00,0.00,0.00,00:00:00,0,0.01,-0.01,0.01,357.62,5.69,87.31,-0.69,-0.08,0.01,0.72
49.354,Pre-Flight,0.00,0.00,0.06,0.00,0.00,-0.48,-0.13,-0.04,-0.13,858.03,38.76,0.19,22.1265134000,-112.4235613000,3012.01,0.00,0.00,0.00,0.00,00:00:00,0,-0.13,-0.04,-0.13,357.56,5.69,87.31,-0.69,-0.08,0.02,0.72
49.454,Pre-Flight,0.00,0.00,0.32,0.00,0.00,0.57,-0.03,-0.01,-0.03,858.04,38.76,1.05,22.1265553000,-112.4234498000,3012.02,0.00,0.00,0.00,0.00,00:00:00,0,-0.03,-0.01,-0.03,357.50,5.69,87.31,-0.69,-0.08,0.02,0.72
49.554,Pre-Flight,0.00,0.00,0.33,0.00,0.00,0.01,-0.06,-0.00,-0.06,857.99,38.76,1.07,19.8979377000,-110.0400244000,2458.78,0.00,0.00,0.00,0.00,00:00:00,0,-0.06,-0.00,-0.06,357.50,5.69,87.31,-0.69,-0.08,0.02,0.72
49.654,Pre-Flight,0.00,0.00,0.13,0.00,0.00,-0.29,-0.03,-0.00,-0.03,858.02,38.76,0.44,22.1266393000,-112.4232268000,3012.04,0.00,0.00,0.00,0.00,00:00:00,0,-0.03,-0.00,-0.03,357.56,5.69,87.38,-0.69,-0.08,0.02,0.72
49.754,Pre-Flight,0.00,0.00,-0.11,0.00,0.00,-0.33,0.17,0.00,0.17,858.04,38.76,-0.38,22.1266813000,-112.4231153000,3012.05,0.00,0.00,0.00,0.00,00:00:00,0,0.17,0.00,0.17,357.62,5.69,87.31,-0.69,-0.08,0.01,0.72
49.854,Pre-Flight,0.00,0.00,-0.18,0.00,0.00,-0.07,-0.02,-0.02,-0.02,858.04,38.76,-0.58,22.1267232000,-112.4230039000,3012.06,0.00,0.00,0.00,0.00,00:00:00,0,-0.02,-0.02,-0.02,357.56,5.69,87.31,-0.69,-0.08,0.02,0.72
49.954,Pre-Flight,0.00,0.00,-0.05,0.00,0.00,0.13,-0.05,-0.02,-0.05,858.05,38.76,-0.16,22.1267652000,-112.4228924000,3012.07,0.00,0.00,0.00,0.00,00:00:00,0,-0.05,-0.02,-0.05,357.50,5.62,87.31,-0.69,-0.08,0.02,0.72
50.054,Pre-Flight,0.00,0.00,0.02,0.00,0.00,0.06,0.08,-0.01,0.08,858.01,38.76,0.06,22.1268071000,-112.4227810000,3012.09,0.00,0.00,0.00,0.00,00:00:00,0,0.08,-0.01,0.08,357.50,5.62,87.31,-0.69,-0.08,0.02,0.72
50.154,Pre-Flight,0.00,0.00,-0.04,0.00,0.00,-0.40,-0.06,0.01,-0.06,858.03,38.77,-0.15,22.1268491000,-112.4226696000,3012.10,0.00,0.00,0.00,0.00,00:00:00,0,-0.06,0.01,-0.06,357.50,5.69,87.31,-0.69,-0.08,0.02,0.72
50.254,Pre-Flight,0.00,0.00,-0.21,0.00,0.00,-0.67,-0.07,-0.01,-0.07,858.04,38.77,-0.70,22.1268910000,-112.4225582000,3012.11,0.00,0.00,0.00,0.00,00:00:00,0,-0.07,-0.01,-0.07,357.50,5.69,87.31,-0.69,-0.08,0.02,0.72
50.354,Pre-Flight,0.00,0.00,-0.38,0.00,0.00,-0.47,0.01,-0.01,0.01,858.06,38.77,-1.25,22.1269330000,-112.4224468000,3012.12,0.00,0.00,0.00,0.00,00:00:00,0,0.01,-0.01,0.01,357.56,5.69,87.31,-0.69,-0.08,0.02,0.72
50.454,Pre-Flight,0.00,0.00,-0.08,0.00,0.00,0.66,0.02,0.00,0.02,858.06,38.77,-0.26,22.1269749000,-112.4223354000,3012.13,0.00,0.00,0.00,0.00,00:00:00,0,0.02,0.00,0.02,357.56,5.69,87.31,-0.69,-0.08,0.02,0.72
50.554,Pre-Flight,0.00,0.00,0.05,0.00,0.00,0.23,0.01,0.01,0.01,858.00,38.77,0.16,22.1270169000,-112.4222240000,3012.14,0.00,0.00,0.00,0.00,00:00:00,0,0.01,0.01,0.01,357.56,5.69,87.31,-0.69,-0.08,0.02,0.72
50.654,Pre-Flight,0.00,0.00,-0.17,0.00,0.00,-0.33,0.03,-0.01,0.03,858.03,38.77,-0.54,6.9963105000,-137.3220038000,314.66,0.00,0.00,0.00,0.00,00:00:00,0,0.03,-0.01,0.03,357.56,5.69,87.31,-0.69,-0.08,0.02,0.72
50.754,Pre-Flight,0.00,0.00,-0.23,0.00,0.00,-0.08,-0.20,0.01,-0.20,858.04,38.77,-0.75,7.4027718000,-136.7332340000,352.08,0.00,0.00,0.00,0.00,00:00:00,0,-0.20,0.01,-0.20,357.44,5.69,87.31,-0.69,-0.08,0.02,0.72
50.854,Pre-Flight,0.00,0.00,0.08,0.00,0.00,0.36,-0.08,0.00,-0.08,858.03,38.77,0.27,7.4033026000,-136.7330154000,352.13,0.00,0.00,0.00,0.00,00:00:00,0,-0.08,0.00,-0.08,357.44,5.69,87.31,-0.69,-0.08,0.02,0.72
50.954,Pre-Flight,0.00,0.00,0.49,0.00,0.00,0.42,-0.03,0.02,-0.03,858.00,38.77,1.59,7.4038335000,-136.7327968000,352.18,0.00,0.00,0.00,0.00,00:00:00,0,-0.03,0.02,-0.03,357.50,5.69,87.31,-0.69,-0.08,0.02,0.72
51.054,Pre-Flight,0.00,0.00,0.54,0.00,0.00,0.05,0.00,0.04,0.00,857.96,38.77,1.76,7.4043643000,-136.7325781000,352.23,0.00,0.00,0.00,0.00,00:00:00,0,0.00,0.04,0.00,357.50,5.69,87.31,-0.69,-0.08,0.02,0.72
51.154,Pre-Flight,0.00,0.00,0.20,0.00,0.00,-2.17,0.10,-0.01,0.10,857.99,38.77,0.66,7.4048952000,-136.7323595000,352.28,0.00,0.00,0.00,0.00,00:00:00,0,0.10,-0.01,0.10,357.50,5.69,87.31,-0.69,-0.08,0.02,0.72
51.254,Pre-Flight,0.00,0.00,-0.05,0.00,0.00,-0.98,0.04,-0.00,0.04,858.02,38.77,-0.16,7.4054260000,-136.7321409000,352.33,0.00,0.00,0.00,0.00,00:00:00,0,0.04,-0.00,0.04,357.50,5.69,87.31,-0.69,-0.08,0.02,0.72
51.354,Pre-Flight,0.00,0.00,-0.22,0.00,0.00,-0.49,-0.19,-0.01,-0.19,858.04,38.77,-0.73,7.4059568000,-136.7319224000,352.38,0.00,0.00,0.00,0.00,00:00:00,0,-0.19,-0.01,-0.19,357.38,5.69,87.31,-0.69,-0.08,0.02,0.72
51.454,Pre-Flight,0.00,0.00,0.07,0.00,0.00,0.64,-0.11,0.00,-0.11,858.05,38.77,0.22,7.4064876000,-136.7317038000,352.43,0.00,0.00,0.00,0.00,00:00:00,0,-0.11,0.00,-0.11,357.25,5.69,87.44,-0.69,-0.09,0.02,0.72
51.554,Pre-Flight,0.00,0.00,0.16,0.00,0.00,0.17,0.04,0.01,0.04,858.01,38.78,0.54,8.3234305000,-138.2529609000,444.46,0.00,0.00,0.00,0.00,00:00:00,0,0.04,0.01,0.04,357.31,5.69,87.44,-0.69,-0.09,0.02,0.72
51.654,Pre-Flight,0.00,0.00,0.16,0.00,0.00,-0.00,-0.07,0.01,-0.07,858.03,38.78,0.53,8.3239401000,-138.2527412000,444.52,0.00,0.00,0.00,0.00,00:00:00,0,-0.07,0.01,-0.07,357.38,5.75,87.38,-0.69,-0.09,0.02,0.72
51.754,Pre-Flight,0.00,0.00,0.04,0.00,0.00,-0.17,0.19,-0.02,0.19,858.03,38.78,0.12,8.3244498000,-138.2525215000,444.57,0.00,0.00,0.00,0.00,00:00:00,0,0.19,-0.02,0.19,357.50,5.75,87.38,-0.69,-0.08,0.02,0.72
51.854,Pre-Flight,0.00,0.00,-0.07,0.00,0.00,-0.13,-0.03,-0.04,-0.03,858.04,38.78,-0.24,8.3249594000,-138.2523018000,444.62,0.00,0.00,0.00,0.00,00:00:00,0,-0.03,-0.04,-0.03,357.38,5.62,87.31,-0.69,-0.08,0.02,0.72
51.954,Pre-Flight,0.00,0.00,-0.01,0.00,0.00,0.06,-0.01,-0.02,-0.01,858.05,38.78,-0.05,8.3254690000,-138.2520822000,444.68,0.00,0.00,0.00,0.00,00:00:00,0,-0.01,-0.02,-0.01,357.25,5.56,87.31,-0.69,-0.08,0.02,0.72
52.054,Pre-Flight,0.00,0.00,0.08,0.00,0.00,0.09,0.11,-0.00,0.11,858.00,38.78,0.28,8.3259786000,-138.2518625000,444.73,0.00,0.00,0.00,0.00,00:00:00,0,0.11,-0.00,0.11,357.25,5.56,87.31,-0.69,-0.08,0.02,0.72
52.154,Pre-Flight,0.00,0.00,-0.20,0.00,0.00,-1.87,0.03,-0.00,0.03,858.03,38.78,-0.67,8.3264882000,-138.2516429000,444.79,0.00,0.00,0.00,0.00,00:00:00,0,0.03,-0.00,0.03,357.25,5.62,87.31,-0.69,-0.08,0.02,0.72
52.254,Pre-Flight,0.00,0.00,-0.36,0.00,0.00,-0.61,-0.18,0.02,-0.18,858.05,38.78,-1.17,9.5289678000,-139.2810955000,581.29,0.00,0.00,0.00,0.00,00:00:00,0,-0.18,0.02,-0.18,357.25,5.62,87.31,-0.69,-0.08,0.02,0.72
52.354,Pre-Flight,0.00,0.00,-0.30,0.00,0.00,0.16,-0.02,-0.01,-0.02,858.06,38.78,-0.99,9.5294491000,-139.2808730000,581.35,0.00,0.00,0.00,0.00,00:00:00,0,-0.02,-0.01,-0.02,357.31,5.62,87.38,-0.69,-0.08,0.02,0.72
52.454,Pre-Flight,0.00,0.00,-0.05,0.00,0.00,0.54,0.03,-0.02,0.03,858.04,38.78,-0.17,8.3280170000,-138.2509840000,444.95,0.00,0.00,0.00,0.00,00:00:00,0,0.03,-0.02,0.03,357.31,5.62,87.38,-0.69,-0.08,0.02,0.72
52.554,Pre-Flight,0.00,0.00,-0.08,0.00,0.00,-0.05,0.09,-0.00,0.09,858.01,38.78,-0.27,8.3285265000,-138.2507644000,445.00,0.00,0.00,0.00,0.00,00:00:00,0,0.09,-0.00,0.09,357.31,5.62,87.38,-0.69,-0.08,0.02,0.72
52.654,Pre-Flight,0.00,0.00,-0.37,0.00,0.00,-0.44,0.25,-0.01,0.25,858.04,38.79,-1.21,9.5308929000,-139.2802056000,581.53,0.00,0.00,0.00,0.00,00:00:00,0,0.25,-0.01,0.25,357.31,5.62,87.31,-0.69,-0.08,0.02,0.72
52.754,Pre-Flight,0.00,0.00,-0.52,0.00,0.00,-0.20,-0.04,0.02,-0.04,858.06,38.79,-1.70,9.5313741000,-139.2799832000,581.58,0.00,0.00,0.00,0.00,00:00:00,0,-0.04,0.02,-0.04,357.25,5.62,87.31,-0.69,-0.08,0.02,0.72
52.854,Pre-Flight,0.00,0.00,-0.62,0.00,0.00,-0.12,-0.22,-0.01,-0.22,858.07,38.79,-2.03,9.0686094000,-139.7930317000,526.93,0.00,0.00,0.00,0.00,00:00:00,0,-0.22,-0.01,-0.22,357.19,5.62,87.31,-0.69,-0.08,0.02,0.72
52.954,Pre-Flight,0.00,0.00,-0.40,0.00,0.00,0.23,-0.05,0.02,-0.05,858.08,38.79,-1.31,9.5323365000,-139.2795383000,581.70,0.00,0.00,0.00,0.00,00:00:00,0,-0.05,0.02,-0.05,357.19,5.62,87.38,-0.69,-0.08,0.02,0.72
53.054,Pre-Flight,0.00,0.00,-0.23,0.00,0.00,0.16,0.05,-0.00,0.05,858.04,38.79,-0.77,9.5328177000,-139.2793158000,581.76,0.00,0.00,0.00,0.00,00:00:00,0,0.05,-0.00,0.05,357.19,5.62,87.38,-0.69,-0.08,0.02,0.72
53.154,Pre-Flight,0.00,0.00,-0.34,0.00,0.00,-0.71,0.20,0.02,0.20,858.05,38.79,-1.13,8.3315837000,-138.2494470000,445.33,0.00,0.00,0.00,0.00,00:00:00,0,0.20,0.02,0.20,357.25,5.62,87.31,-0.69,-0.08,0.02,0.72
53.254,Pre-Flight,0.00,0.00,-0.30,0.00,0.00,0.18,0.08,-0.02,0.08,858.06,38.79,-0.97,7.8971678000,-138.7979778000,400.38,0.00,0.00,0.00,0.00,00:00:00,0,0.08,-0.02,0.08,357.25,5.62,87.31,-0.69,-0.08,0.02,0.72
53.354,Pre-Flight,0.00,0.00,-0.40,0.00,0.00,-0.30,-0.06,-0.02,-0.06,858.07,38.79,-1.32,8.3326027000,-138.2490079000,445.44,0.00,0.00,0.00,0.00,00:00:00,0,-0.06,-0.02,-0.06,357.12,5.62,87.31,-0.69,-0.08,0.02,0.72
53.454,Pre-Flight,0.00,0.00,-0.03,0.00,0.00,0.82,-0.14,-0.01,-0.14,858.06,38.79,-0.11,8.3331122000,-138.2487883000,445.49,0.00,0.00,0.00,0.00,00:00:00,0,-0.14,-0.01,-0.14,357.12,5.62,87.31,-0.69,-0.09,0.02,0.72
53.554,Pre-Flight,0.00,0.00,0.36,0.00,0.00,0.70,0.01,0.03,0.01,858.00,38.79,1.17,8.3336217000,-138.2485688000,445.55,0.00,0.00,0.00,0.00,00:00:00,0,0.01,0.03,0.01,357.12,5.62,87.31,-0.69,-0.09,0.02,0.72
53.654,Pre-Flight,0.00,0.00,0.28,0.00,0.00,-0.12,-0.07,0.05,-0.07,858.00,38.79,0.91,9.5357048000,-139.2779814000,582.11,0.00,0.00,0.00,0.00,00:00:00,0,-0.07,0.05,-0.07,357.12,5.69,87.31,-0.69,-0.09,0.02,0.72
53.754,Pre-Flight,0.00,0.00,0.14,0.00,0.00,-0.19,0.02,-0.01,0.02,858.02,38.79,0.45,9.5361859000,-139.2777591000,582.17,0.00,0.00,0.00,0.00,00:00:00,0,0.02,-0.01,0.02,357.19,5.69,87.31,-0.69,-0.09,0.02,0.72
53.854,Pre-Flight,0.00,0.00,-0.15,0.00,0.00,-0.34,0.06,-0.02,0.06,858.04,38.80,-0.49,9.5366670000,-139.2775367000,582.23,0.00,0.00,0.00,0.00,00:00:00,0,0.06,-0.02,0.06,357.19,5.56,87.31,-0.69,-0.08,0.02,0.72
53.954,Pre-Flight,0.00,0.00,-0.16,0.00,0.00,-0.01,0.00,-0.01,0.00,858.08,38.80,-0.53,9.5371482000,-139.2773143000,582.28,0.00,0.00,0.00,0.00,00:00:00,0,0.00,-0.01,0.00,357.06,5.56,87.31,-0.69,-0.08,0.02,0.72
54.054,Pre-Flight,0.00,0.00,-0.04,0.00,0.00,0.11,-0.03,-0.02,-0.03,858.05,38.80,-0.14,9.5376293000,-139.2770920000,582.34,0.00,0.00,0.00,0.00,00:00:00,0,-0.03,-0.02,-0.03,357.06,5.56,87.31,-0.69,-0.09,0.02,0.72
54.154,Pre-Flight,0.00,0.00,-0.36,0.00,0.00,-2.05,-0.02,-0.01,-0.02,858.07,38.80,-1.18,9.5381104000,-139.2768697000,582.40,0.00,0.00,0.00,0.00,00:00:00,0,-0.02,-0.01,-0.02,357.06,5.62,87.31,-0.69,-0.09,0.02,0.72
54.254,Pre-Flight,0.00,0.00,-0.41,0.00,0.00,-0.21,-0.10,0.00,-0.10,858.10,38.80,-1.36,9.5385915000,-139.2766473000,582.46,0.00,0.00,0.00,0.00,00:00:00,0,-0.10,0.00,-0.10,357.06,5.62,87.31,-0.69,-0.09,0.02,0.72
54.354,Pre-Flight,0.00,0.00,-0.33,0.00,0.00,0.22,-0.07,0.01,-0.07,858.09,38.80,-1.10,9.5390726000,-139.2764250000,582.52,0.00,0.00,0.00,0.00,00:00:00,0,-0.07,0.01,-0.07,357.12,5.62,87.31,-0.69,-0.09,0.02,0.72
54.454,Pre-Flight,0.00,0.00,0.06,0.00,0.00,0.86,0.10,-0.01,0.10,858.08,38.80,0.19,9.5395536000,-139.2762027000,582.57,0.00,0.00,0.00,0.00,00:00:00,0,0.10,-0.01,0.10,357.19,5.56,87.31,-0.69,-0.08,0.02,0.72
54.554,Pre-Flight,0.00,0.00,0.36,0.00,0.00,0.54,0.02,0.02,0.02,858.02,38.80,1.17,9.0769698000,-139.7892915000,527.89,0.00,0.00,0.00,0.00,00:00:00,0,0.02,0.02,0.02,357.06,5.56,87.31,-0.69,-0.08,0.02,0.72
54.654,Pre-Flight,0.00,0.00,0.28,0.00,0.00,-0.12,0.10,-0.00,0.10,858.00,38.80,0.90,9.0774615000,-139.7890715000,527.95,0.00,0.00,0.00,0.00,00:00:00,0,0.10,-0.00,0.10,357.06,5.56,87.31,-0.69,-0.09,0.02,0.72
54.754,Pre-Flight,0.00,0.00,0.03,0.00,0.00,-0.33,-0.09,-0.03,-0.09,858.03,38.80,0.09,9.0779532000,-139.7888516000,528.01,0.00,0.00,0.00,0.00,00:00:00,0,-0.09,-0.03,-0.09,357.06,5.62,87.25,-0.69,-0.09,0.02,0.72
54.854,Pre-Flight,0.00,0.00,-0.15,0.00,0.00,-0.20,-0.22,0.00,-0.22,858.05,38.80,-0.48,9.0784449000,-139.7886317000,528.07,0.00,0.00,0.00,0.00,00:00:00,0,-0.22,0.00,-0.22,356.94,5.62,87.31,-0.69,-0.09,0.02,0.72
54.954,Pre-Flight,0.00,0.00,0.23,0.00,0.00,0.39,-0.09,0.02,-0.09,858.05,38.80,0.74,9.0789366000,-139.7884118000,528.12,0.00,0.00,0.00,0.00,00:00:00,0,-0.09,0.02,-0.09,357.00,5.62,87.38,-0.69,-0.09,0.02,0.72
55.054,Pre-Flight,0.00,0.00,0.31,0.00,0.00,0.08,0.22,0.03,0.22,858.00,38.80,1.01,9.0794283000,-139.7881919000,528.18,0.00,0.00,0.00,0.00,00:00:00,0,0.22,0.03,0.22,357.12,5.62,87.31,-0.69,-0.09,0.02,0.72
55.154,Pre-Flight,0.00,0.00,0.06,0.00,0.00,-1.61,-0.01,0.01,-0.01,858.02,38.81,0.20,9.0799199000,-139.7879720000,528.24,0.00,0.00,0.00,0.00,00:00:00,0,-0.01,0.01,-0.01,357.06,5.62,87.31,-0.69,-0.09,0.02,0.72
55.254,Pre-Flight,0.00,0.00,-0.21,0.00,0.00,-1.06,0.06,-0.00,0.06,858.05,38.81,-0.68,7.9075502000,-138.7936326000,401.43,0.00,0.00,0.00,0.00,00:00:00,0,0.06,-0.00,0.06,357.06,5.62,87.31,-0.69,-0.09,0.02,0.72
55.354,Pre-Flight,0.00,0.00,-0.21,0.00,0.00,0.00,-0.15,0.01,-0.15,858.07,38.81,-0.68,7.0216730000,-137.3118257000,316.94,0.00,0.00,0.00,0.00,00:00:00,0,-0.15,0.01,-0.15,357.00,5.62,87.31,-0.69,-0.09,0.02,0.72
55.454,Pre-Flight,0.00,0.00,-0.12,0.00,0.00,0.20,-0.17,0.01,-0.17,858.07,38.81,-0.38,7.9085882000,-138.7931982000,401.53,0.00,0.00,0.00,0.00,00:00:00,0,-0.17,0.01,-0.17,357.00,5.62,87.38,-0.69,-0.09,0.02,0.72
55.554,Pre-Flight,0.00,0.00,0.00,0.00,0.00,0.21,-0.02,-0.01,-0.02,858.05,38.81,0.00,7.0227518000,-137.3113930000,317.03,0.00,0.00,0.00,0.00,00:00:00,0,-0.02,-0.01,-0.02,357.00,5.62,87.38,-0.69,-0.09,0.02,0.72
55.654,Pre-Flight,0.00,0.00,-0.21,0.00,0.00,-0.32,0.33,-0.00,0.33,858.06,38.81,-0.68,5.8063736000,-136.2863030000,217.06,0.00,0.00,0.00,0.00,00:00:00,0,0.33,-0.00,0.33,357.12,5.62,87.31,-0.69,-0.09,0.02,0.72
55.754,Pre-Flight,0.00,0.00,-0.13,0.00,0.00,0.10,-0.06,0.01,-0.06,858.07,38.81,-0.43,5.8069398000,-136.2860889000,217.10,0.00,0.00,0.00,0.00,00:00:00,0,-0.06,0.01,-0.06,357.06,5.62,87.25,-0.68,-0.09,0.02,0.72
55.854,Pre-Flight,0.00,0.00,-0.01,0.00,0.00,0.14,-0.06,0.01,-0.06,858.06,38.81,-0.02,6.7026927000,-137.7762627000,288.92,0.00,0.00,0.00,0.00,00:00:00,0,-0.06,0.01,-0.06,357.00,5.62,87.25,-0.69,-0.09,0.02,0.72
55.954,Pre-Flight,0.00,0.00,0.22,0.00,0.00,0.24,0.03,-0.01,0.03,858.06,38.81,0.73,6.7032390000,-137.7760480000,288.97,0.00,0.00,0.00,0.00,00:00:00,0,0.03,-0.01,0.03,357.00,5.62,87.31,-0.69,-0.09,0.02,0.72
56.054,Pre-Flight,0.00,0.00,0.30,0.00,0.00,0.07,-0.01,0.00,-0.01,858.00,38.81,0.97,5.4612975000,-136.7377315000,192.10,0.00,0.00,0.00,0.00,00:00:00,0,-0.01,0.00,-0.01,357.00,5.62,87.31,-0.69,-0.09,0.02,0.72
56.154,Pre-Flight,0.00,0.00,0.17,0.00,0.00,-0.80,-0.01,0.01,-0.01,858.02,38.81,0.57,5.4618709000,-136.7375190000,192.14,0.00,0.00,0.00,0.00,00:00:00,0,-0.01,0.01,-0.01,357.06,5.62,87.31,-0.69,-0.09,0.02,0.72
56.254,Pre-Flight,0.00,0.00,0.05,0.00,0.00,-0.47,0.21,0.00,0.21,858.02,38.81,0.18,5.8344431000,-136.1142798000,219.15,0.00,0.00,0.00,0.00,00:00:00,0,0.21,0.00,0.21,357.12,5.62,87.31,-0.69,-0.09,0.02,0.72
56.354,Pre-Flight,0.00,0.00,0.07,0.00,0.00,0.04,-0.05,-0.01,-0.05,858.04,38.82,0.23,5.8350087000,-136.1140655000,219.19,0.00,0.00,0.00,0.00,00:00:00,0,-0.05,-0.01,-0.05,357.06,5.62,87.25,-0.68,-0.09,0.02,0.72
56.454,Pre-Flight,0.00,0.00,0.30,0.00,0.00,0.51,-0.05,0.02,-0.05,858.04,38.82,0.98,5.8355743000,-136.1138511000,219.24,0.00,0.00,0.00,0.00,00:00:00,0,-0.05,0.02,-0.05,357.00,5.62,87.31,-0.69,-0.09,0.02,0.72
56.554,Pre-Flight,0.00,0.00,0.48,0.00,0.00,0.33,0.03,0.00,0.03,857.97,38.82,1.58,5.8361400000,-136.1136367000,219.28,0.00,0.00,0.00,0.00,00:00:00,0,0.03,0.00,0.03,357.00,5.62,87.31,-0.69,-0.09,0.02,0.72
56.654,Pre-Flight,0.00,0.00,0.26,0.00,0.00,-0.33,0.00,0.02,0.00,858.01,38.82,0.87,5.8367056000,-136.1134224000,219.32,0.00,0.00,0.00,0.00,00:00:00,0,0.00,0.02,0.00,357.00,5.62,87.31,-0.69,-0.09,0.02,0.72
56.754,Pre-Flight,0.00,0.00,0.07,0.00,0.00,-0.26,-0.03,-0.02,-0.03,858.03,38.82,0.23,5.8372712000,-136.1132081000,219.36,0.00,0.00,0.00,0.00,00:00:00,0,-0.03,-0.02,-0.03,357.06,5.62,87.31,-0.69,-0.09,0.02,0.72
56.854,Pre-Flight,0.00,0.00,-0.07,0.00,0.00,-0.16,0.07,-0.02,0.07,858.05,38.82,-0.22,6.7768665000,-137.6747621000,295.32,0.00,0.00,0.00,0.00,00:00:00,0,0.07,-0.02,0.07,357.06,5.62,87.31,-0.69,-0.09,0.02,0.72
56.954,Pre-Flight,0.00,0.00,0.03,0.00,0.00,0.10,-0.02,-0.02,-0.02,858.07,38.82,0.10,7.2038610000,-137.0565872000,333.51,0.00,0.00,0.00,0.00,00:00:00,0,-0.02,-0.02,-0.02,357.06,5.62,87.31,-0.69,-0.09,0.02,0.72
57.054,Pre-Flight,0.00,0.00,0.21,0.00,0.00,0.17,0.06,0.00,0.06,858.02,38.82,0.70,6.7779559000,-137.6743322000,295.42,0.00,0.00,0.00,0.00,00:00:00,0,0.06,0.00,0.06,357.06,5.62,87.31,-0.69,-0.09,0.02,0.72
57.154,Pre-Flight,0.00,0.00,0.18,0.00,0.00,-0.24,0.11,0.00,0.11,858.03,38.82,0.58,6.7785007000,-137.6741172000,295.46,0.00,0.00,0.00,0.00,00:00:00,0,0.11,0.00,0.11,357.06,5.62,87.31,-0.69,-0.09,0.02,0.72
57.254,Pre-Flight,0.00,0.00,0.18,0.00,0.00,0.01,-0.13,0.02,-0.13,858.03,38.82,0.59,6.7790454000,-137.6739023000,295.51,0.00,0.00,0.00,0.00,00:00:00,0,-0.13,0.02,-0.13,357.00,5.62,87.31,-0.69,-0.09,0.02,0.72
57.354,Pre-Flight,0.00,0.00,0.28,0.00,0.00,0.29,-0.19,-0.01,-0.19,858.03,38.82,0.93,6.7795901000,-137.6736874000,295.56,0.00,0.00,0.00,0.00,00:00:00,0,-0.19,-0.01,-0.19,357.00,5.62,87.31,-0.69,-0.09,0.02,0.72
57.454,Pre-Flight,0.00,0.00,0.39,0.00,0.00,0.22,0.12,-0.01,0.12,858.02,38.83,1.26,6.7801348000,-137.6734724000,295.61,0.00,0.00,0.00,0.00,00:00:00,0,0.12,-0.01,0.12,357.06,5.62,87.31,-0.69,-0.09,0.02,0.72
57.554,Pre-Flight,0.00,0.00,0.29,0.00,0.00,-0.18,-0.06,0.00,-0.06,857.98,38.83,0.94,6.7806794000,-137.6732575000,295.65,0.00,0.00,0.00,0.00,00:00:00,0,-0.06,0.00,-0.06,357.00,5.62,87.31,-0.69,-0.09,0.02,0.72
57.654,Pre-Flight,0.00,0.00,0.10,0.00,0.00,-0.29,0.14,-0.00,0.14,858.01,38.83,0.32,6.7812241000,-137.6730426000,295.70,0.00,0.00,0.00,0.00,00:00:00,0,0.14,-0.00,0.14,357.00,5.62,87.31,-0.69,-0.09,0.02,0.72
57.754,Pre-Flight,0.00,0.00,-0.06,0.00,0.00,-0.21,0.01,-0.01,0.01,858.03,38.83,-0.20,7.7251953000,-139.2568657000,383.23,0.00,0.00,0.00,0.00,00:00:00,0,0.01,-0.01,0.01,357.00,5.62,87.31,-0.69,-0.09,0.02,0.72
57.854,Pre-Flight,0.00,0.00,0.03,0.00,0.00,0.10,-0.17,0.01,-0.17,858.03,38.83,0.08,7.7257183000,-139.2566502000,383.29,0.00,0.00,0.00,0.00,00:00:00,0,-0.17,0.01,-0.17,356.81,5.62,87.31,-0.69,-0.09,0.02,0.72
57.954,Pre-Flight,0.00,0.00,0.57,0.00,0.00,0.58,-0.13,-0.03,-0.13,858.01,38.83,1.88,7.7262412000,-139.2564346000,383.34,0.00,0.00,0.00,0.00,00:00:00,0,-0.13,-0.03,-0.13,356.88,5.62,87.38,-0.69,-0.09,0.02,0.72
58.054,Pre-Flight,0.00,0.00,0.74,0.00,0.00,0.16,0.14,0.00,0.14,857.93,38.83,2.43,8.0478581000,-138.7383314000,415.70,0.00,0.00,0.00,0.00,00:00:00,0,0.14,0.00,0.14,356.94,5.62,87.31,-0.69,-0.09,0.02,0.72
58.154,Pre-Flight,0.00,0.00,0.48,0.00,0.00,-1.69,-0.05,0.01,-0.05,857.96,38.83,1.58,8.0483740000,-138.7381140000,415.76,0.00,0.00,0.00,0.00,00:00:00,0,-0.05,0.01,-0.05,356.94,5.62,87.31,-0.69,-0.09,0.02,0.72
58.254,Pre-Flight,0.00,0.00,0.14,0.00,0.00,-1.36,0.29,-0.01,0.29,857.99,38.83,0.45,8.0488899000,-138.7378966000,415.81,0.00,0.00,0.00,0.00,00:00:00,0,0.29,-0.01,0.29,357.00,5.62,87.31,-0.69,-0.09,0.02,0.72
58.354,Pre-Flight,0.00,0.00,-0.08,0.00,0.00,-0.60,0.00,-0.03,0.00,858.03,38.83,-0.25,8.9802295000,-140.3101817000,516.79,0.00,0.00,0.00,0.00,00:00:00,0,0.00,-0.03,0.00,356.88,5.62,87.25,-0.68,-0.09,0.02,0.72
58.454,Pre-Flight,0.00,0.00,0.12,0.00,0.00,0.44,-0.11,0.00,-0.11,858.04,38.83,0.40,8.9807232000,-140.3099633000,516.85,0.00,0.00,0.00,0.00,00:00:00,0,-0.11,0.00,-0.11,356.75,5.62,87.31,-0.68,-0.09,0.02,0.72
58.554,Pre-Flight,0.00,0.00,0.46,0.00,0.00,0.61,-0.04,-0.01,-0.04,857.98,38.83,1.51,8.9812170000,-140.3097449000,516.90,0.00,0.00,0.00,0.00,00:00:00,0,-0.04,-0.01,-0.04,356.75,5.62,87.38,-0.69,-0.09,0.02,0.72
58.654,Pre-Flight,0.00,0.00,0.24,0.00,0.00,-0.34,-0.00,0.01,-0.00,857.99,38.84,0.79,8.9817107000,-140.3095266000,516.96,0.00,0.00,0.00,0.00,00:00:00,0,-0.00,0.01,-0.00,356.81,5.62,87.38,-0.69,-0.09,0.02,0.72
58.754,Pre-Flight,0.00,0.00,0.09,0.00,0.00,-0.20,-0.14,-0.03,-0.14,858.00,38.84,0.30,8.9822044000,-140.3093082000,517.02,0.00,0.00,0.00,0.00,00:00:00,0,-0.14,-0.03,-0.14,356.81,5.69,87.38,-0.69,-0.09,0.02,0.72
58.854,Pre-Flight,0.00,0.00,0.01,0.00,0.00,-0.10,0.24,-0.01,0.24,858.02,38.84,0.03,8.0519853000,-138.7365921000,416.13,0.00,0.00,0.00,0.00,00:00:00,0,0.24,-0.01,0.24,356.94,5.62,87.31,-0.69,-0.09,0.02,0.72
58.954,Pre-Flight,0.00,0.00,0.01,0.00,0.00,0.00,0.23,-0.04,0.23,858.04,38.84,0.04,8.0525012000,-138.7363747000,416.18,0.00,0.00,0.00,0.00,00:00:00,0,0.23,-0.04,0.23,356.88,5.56,87.19,-0.68,-0.09,0.02,0.72
59.054,Pre-Flight,0.00,0.00,0.00,0.00,0.00,-0.01,-0.16,-0.02,-0.16,858.00,38.84,0.01,8.0530171000,-138.7361573000,416.24,0.00,0.00,0.00,0.00,00:00:00,0,-0.16,-0.02,-0.16,356.75,5.56,87.19,-0.68,-0.09,0.02,0.72
59.154,Pre-Flight,0.00,0.00,-0.16,0.00,0.00,-1.08,-0.02,0.02,-0.02,858.02,38.84,-0.53,8.0535329000,-138.7359400000,416.29,0.00,0.00,0.00,0.00,00:00:00,0,-0.02,0.02,-0.02,356.69,5.56,87.25,-0.68,-0.09,0.02,0.72
59.254,Pre-Flight,0.00,0.00,-0.22,0.00,0.00,-0.23,-0.14,0.02,-0.14,858.02,38.84,-0.73,6.7899377000,-137.6696052000,296.46,0.00,0.00,0.00,0.00,00:00:00,0,-0.14,0.02,-0.14,356.69,5.62,87.25,-0.68,-0.09,0.02,0.72
59.354,Pre-Flight,0.00,0.00,-0.12,0.00,0.00,0.30,-0.27,0.01,-0.27,858.01,38.84,-0.38,6.7904822000,-137.6693904000,296.50,0.00,0.00,0.00,0.00,00:00:00,0,-0.27,0.01,-0.27,356.75,5.62,87.31,-0.69,-0.09,0.02,0.72
59.454,Pre-Flight,0.00,0.00,0.18,0.00,0.00,0.65,0.13,-0.00,0.13,858.01,38.84,0.59,6.7910267000,-137.6691757000,296.55,0.00,0.00,0.00,0.00,00:00:00,0,0.13,-0.00,0.13,356.88,5.62,87.31,-0.69,-0.09,0.02,0.72
59.554,Pre-Flight,0.00,0.00,0.24,0.00,0.00,0.11,0.16,-0.01,0.16,857.96,38.84,0.78,6.7915712000,-137.6689609000,296.60,0.00,0.00,0.00,0.00,00:00:00,0,0.16,-0.01,0.16,356.88,5.56,87.25,-0.68,-0.09,0.02,0.72
59.654,Pre-Flight,0.00,0.00,-0.05,0.00,0.00,-0.44,0.10,0.01,0.10,857.99,38.84,-0.16,6.7921157000,-137.6687462000,296.64,0.00,0.00,0.00,0.00,00:00:00,0,0.10,0.01,0.10,356.81,5.56,87.19,-0.68,-0.09,0.02,0.72
59.754,Pre-Flight,0.00,0.00,-0.19,0.00,0.00,-0.19,-0.14,0.03,-0.14,858.02,38.85,-0.64,6.7926602000,-137.6685314000,296.69,0.00,0.00,0.00,0.00,00:00:00,0,-0.14,0.03,-0.14,356.69,5.56,87.25,-0.68,-0.09,0.02,0.72
59.854,Pre-Flight,0.00,0.00,-0.19,0.00,0.00,0.00,-0.14,0.00,-0.14,858.01,38.85,-0.62,6.7932047000,-137.6683167000,296.74,0.00,0.00,0.00,0.00,00:00:00,0,-0.14,0.00,-0.14,356.69,5.56,87.31,-0.68,-0.09,0.02,0.72
59.954,Pre-Flight,0.00,0.00,0.12,0.00,0.00,0.33,-0.27,-0.01,-0.27,858.02,38.85,0.41,6.7937492000,-137.6681020000,296.79,0.00,0.00,0.00,0.00,00:00:00,0,-0.27,-0.01,-0.27,356.62,5.62,87.31,-0.69,-0.09,0.02,0.72
60.054,Pre-Flight,0.00,0.00,0.29,0.00,0.00,0.15,0.01,0.00,0.01,857.96,38.85,0.94,6.7942936000,-137.6678873000,296.83,0.00,0.00,0.00,0.00,00:00:00,0,0.01,0.00,0.01,356.75,5.62,87.38,-0.69,-0.09,0.02,0.72
60.154,Pre-Flight,0.00,0.00,0.08,0.00,0.00,-1.36,0.17,-0.01,0.17,858.00,38.85,0.25,6.7948381000,-137.6676726000,296.88,0.00,0.00,0.00,0.00,00:00:00,0,0.17,-0.01,0.17,356.88,5.62,87.31,-0.68,-0.09,0.02,0.72
60.254,Pre-Flight,0.00,0.00,0.07,0.00,0.00,-0.04,0.05,0.01,0.05,858.00,38.85,0.22,6.7953825000,-137.6674579000,296.93,0.00,0.00,0.00,0.00,00:00:00,0,0.05,0.01,0.05,356.75,5.56,87.19,-0.68,-0.09,0.02,0.72
60.354,Pre-Flight,0.00,0.00,0.13,0.00,0.00,0.19,-0.10,0.01,-0.10,858.01,38.85,0.44,6.7959269000,-137.6672432000,296.98,0.00,0.00,0.00,0.00,00:00:00,0,-0.10,0.01,-0.10,356.69,5.56,87.25,-0.68,-0.09,0.02,0.72
60.454,Pre-Flight,0.00,0.00,0.28,0.00,0.00,0.31,0.02,0.02,0.02,858.00,38.85,0.90,6.7964714000,-137.6670285000,297.02,0.00,0.00,0.00,0.00,00:00:00,0,0.02,0.02,0.02,356.69,5.56,87.25,-0.68,-0.09,0.02,0.72
60.554,Pre-Flight,0.00,0.00,0.27,0.00,0.00,-0.01,-0.25,-0.00,-0.25,857.95,38.85,0.89,6.7970158000,-137.6668138000,297.07,0.00,0.00,0.00,0.00,00:00:00,0,-0.25,-0.00,-0.25,356.62,5.56,87.31,-0.69,-0.09,0.02,0.72
60.654,Pre-Flight,0.00,0.00,-0.08,0.00,0.00,-0.54,0.13,-0.01,0.13,858.00,38.85,-0.27,6.7975602000,-137.6665991000,297.12,0.00,0.00,0.00,0.00,00:00:00,0,0.13,-0.01,0.13,356.81,5.62,87.31,-0.69,-0.09,0.02,0.72
60.754,Pre-Flight,0.00,0.00,-0.12,0.00,0.00,-0.05,0.05,-0.02,0.05,858.02,38.85,-0.41,8.0617852000,-138.7324632000,417.14,0.00,0.00,0.00,0.00,00:00:00,0,0.05,-0.02,0.05,356.81,5.56,87.25,-0.68,-0.09,0.02,0.72
60.854,Pre-Flight,0.00,0.00,-0.34,0.00,0.00,-0.25,0.11,-0.02,0.11,858.03,38.86,-1.11,8.0623009000,-138.7322460000,417.19,0.00,0.00,0.00,0.00,00:00:00,0,0.11,-0.02,0.11,356.75,5.56,87.25,-0.68,-0.09,0.02,0.72
60.954,Pre-Flight,0.00,0.00,-0.22,0.00,0.00,0.12,-0.03,0.00,-0.03,858.05,38.86,-0.73,8.0628166000,-138.7320288000,417.24,0.00,0.00,0.00,0.00,00:00:00,0,-0.03,0.00,-0.03,356.69,5.56,87.25,-0.68,-0.09,0.02,0.72
61.054,Pre-Flight,0.00,0.00,-0.13,0.00,0.00,0.09,0.19,0.01,0.19,858.00,38.85,-0.41,8.0633323000,-138.7318116000,417.30,0.00,0.00,0.00,0.00,00:00:00,0,0.19,0.01,0.19,356.69,5.56,87.25,-0.68,-0.09,0.02,0.72
61.154,Pre-Flight,0.00,0.00,-0.32,0.00,0.00,-1.29,-0.12,-0.01,-0.12,858.02,38.86,-1.06,8.0638480000,-138.7315944000,417.35,0.00,0.00,0.00,0.00,00:00:00,0,-0.12,-0.01,-0.12,356.69,5.56,87.31,-0.68,-0.09,0.02,0.72
61.254,Pre-Flight,0.00,0.00,-0.36,0.00,0.00,-0.15,0.07,0.02,0.07,858.04,38.86,-1.18,8.0643636000,-138.7313772000,417.40,0.00,0.00,0.00,0.00,00:00:00,0,0.07,0.02,0.07,356.75,5.62,87.31,-0.69,-0.09,0.02,0.72
61.354,Pre-Flight,0.00,0.00,-0.43,0.00,0.00,-0.19,-0.09,-0.03,-0.09,858.04,38.86,-1.41,8.0648793000,-138.7311600000,417.45,0.00,0.00,0.00,0.00,00:00:00,0,-0.09,-0.03,-0.09,356.75,5.56,87.31,-0.69,-0.09,0.02,0.72
61.454,Pre-Flight,0.00,0.00,-0.28,0.00,0.00,0.32,0.05,-0.03,0.05,858.05,38.86,-0.93,8.0653949000,-138.7309428000,417.51,0.00,0.00,0.00,0.00,00:00:00,0,0.05,-0.03,0.05,356.75,5.56,87.31,-0.69,-0.09,0.02,0.72
61.554,Pre-Flight,0.00,0.00,-0.13,0.00,0.00,0.28,0.08,-0.01,0.08,857.98,38.86,-0.41,8.0659106000,-138.7307257000,417.56,0.00,0.00,0.00,0.00,00:00:00,0,0.08,-0.01,0.08,356.69,5.56,87.31,-0.69,-0.09,0.02,0.72
61.654,Pre-Flight,0.00,0.00,-0.13,0.00,0.00,-0.01,0.18,0.01,0.18,858.01,38.86,-0.44,8.0664262000,-138.7305085000,417.61,0.00,0.00,0.00,0.00,00:00:00,0,0.18,0.01,0.18,356.75,5.56,87.31,-0.68,-0.09,0.02,0.72
61.754,Pre-Flight,0.00,0.00,-0.16,0.00,0.00,-0.03,-0.13,0.03,-0.13,858.01,38.86,-0.52,8.0669418000,-138.7302913000,417.67,0.00,0.00,0.00,0.00,00:00:00,0,-0.13,0.03,-0.13,356.69,5.56,87.31,-0.68,-0.09,0.02,0.72
61.854,Pre-Flight,0.00,0.00,-0.42,0.00,0.00,-0.31,-0.14,-0.01,-0.14,858.03,38.86,-1.38,9.2920093000,-139.7719948000,552.99,0.00,0.00,0.00,0.00,00:00:00,0,-0.14,-0.01,-0.14,356.69,5.62,87.31,-0.69,-0.09,0.02,0.72
61.954,Pre-Flight,0.00,0.00,-0.15,0.00,0.00,0.28,-0.02,-0.01,-0.02,858.04,38.86,-0.50,8.8291611000,-140.2790426000,499.69,0.00,0.00,0.00,0.00,00:00:00,0,-0.02,-0.01,-0.02,356.69,5.56,87.31,-0.69,-0.09,0.02,0.72
62.054,Pre-Flight,0.00,0.00,-0.24,0.00,0.00,-0.08,0.18,0.03,0.18,857.99,38.86,-0.78,8.8296584000,-140.2788251000,499.74,0.00,0.00,0.00,0.00,00:00:00,0,0.18,0.03,0.18,356.75,5.56,87.31,-0.69,-0.09,0.02,0.72
62.154,Pre-Flight,0.00,0.00,-0.31,0.00,0.00,-0.47,0.05,0.01,0.05,858.04,38.87,-1.02,8.8301558000,-140.2786077000,499.80,0.00,0.00,0.00,0.00,00:00:00,0,0.05,0.01,0.05,356.69,5.56,87.25,-0.68,-0.09,0.02,0.72
62.254,Pre-Flight,0.00,0.00,-0.17,0.00,0.00,0.57,-0.04,0.02,-0.04,858.03,38.87,-0.54,8.8306531000,-140.2783902000,499.85,0.00,0.00,0.00,0.00,00:00:00,0,-0.04,0.02,-0.04,356.69,5.62,87.25,-0.68,-0.09,0.02,0.72
62.354,Pre-Flight,0.00,0.00,-0.23,0.00,0.00,-0.18,-0.15,-0.00,-0.15,858.02,38.87,-0.75,8.8311504000,-140.2781727000,499.91,0.00,0.00,0.00,0.00,00:00:00,0,-0.15,-0.00,-0.15,356.69,5.56,87.31,-0.68,-0.09,0.02,0.72
62.454,Pre-Flight,0.00,0.00,-0.03,0.00,0.00,0.43,-0.10,0.00,-0.10,858.05,38.87,-0.11,7.6367275000,-139.2725855000,374.56,0.00,0.00,0.00,0.00,00:00:00,0,-0.10,0.00,-0.10,356.69,5.62,87.31,-0.69,-0.09,0.02,0.72
62.554,Pre-Flight,0.00,0.00,-0.01,0.00,0.00,0.05,0.02,0.00,0.02,858.00,38.87,-0.02,7.6372525000,-139.2723707000,374.61,0.00,0.00,0.00,0.00,00:00:00,0,0.02,0.00,0.02,356.69,5.62,87.31,-0.69,-0.09,0.02,0.72
62.654,Pre-Flight,0.00,0.00,-0.24,0.00,0.00,-0.36,0.19,-0.01,0.19,858.04,38.87,-0.79,7.6372525000,-139.2723707000,374.61,0.00,0.00,0.00,0.00,00:00:00,0,0.19,-0.01,0.19,356.75,5.62,87.31,-0.68,-0.09,0.02,0.72
62.754,Pre-Flight,0.00,0.00,-0.24,0.00,0.00,-0.00,0.02,-0.01,0.02,858.05,38.87,-0.80,32.9396035000,-106.9114454000,1386.33,0.00,0.00,0.00,0.00,00:00:00,0,0.02,-0.01,0.02,356.69,5.56,87.19,-0.68,-0.09,0.02,0.72
62.854,Pre-Flight,0.00,0.00,-0.31,0.00,0.00,-0.08,-0.12,-0.01,-0.12,858.04,38.87,-1.02,32.9395681000,-106.9114557000,1379.93,0.00,0.00,0.00,0.00,00:00:00,0,-0.12,-0.01,-0.12,356.62,5.56,87.25,-0.68,-0.09,0.02,0.72
62.954,Pre-Flight,0.00,0.00,-0.14,0.00,0.00,0.18,-0.02,0.02,-0.02,858.06,38.87,-0.47,32.9395692000,-106.9114530000,1379.53,0.00,0.00,0.00,0.00,00:00:00,0,-0.02,0.02,-0.02,356.56,5.56,87.25,-0.68,-0.09,0.02,0.72
63.054,Pre-Flight,0.00,0.00,0.02,0.00,0.00,0.16,-0.12,-0.01,-0.12,858.01,38.87,0.07,32.9395610000,-106.9114600000,1380.35,0.00,0.00,0.00,0.00,00:00:00,0,-0.12,-0.01,-0.12,356.56,5.62,87.31,-0.68,-0.09,0.02,0.72
63.154,Pre-Flight,0.00,0.00,-0.06,0.00,0.00,-0.54,-0.02,0.03,-0.02,858.02,38.88,-0.20,32.9395548000,-106.9114682000,1380.98,0.00,0.00,0.00,0.00,00:00:00,0,-0.02,0.03,-0.02,356.62,5.62,87.31,-0.68,-0.09,0.02,0.72
63.254,Pre-Flight,0.00,0.00,-0.07,0.00,0.00,-0.03,0.24,-0.01,0.24,858.02,38.88,-0.23,32.9395513000,-106.9114742000,1380.49,0.00,0.00,0.00,0.00,00:00:00,0,0.24,-0.01,0.24,356.69,5.62,87.31,-0.68,-0.09,0.02,0.72
63.354,Pre-Flight,0.00,0.00,-0.16,0.00,0.00,-0.25,-0.07,-0.02,-0.07,858.04,38.88,-0.51,32.9395536000,-106.9114719000,1380.81,0.00,0.00,0.00,0.00,00:00:00,0,-0.07,-0.02,-0.07,356.62,5.62,87.25,-0.68,-0.09,0.02,0.72
63.454,Pre-Flight,0.00,0.00,0.20,0.00,0.00,0.80,-0.03,-0.02,-0.03,858.03,38.88,0.67,32.9395471000,-106.9114783000,1381.34,0.00,0.00,0.00,0.00,00:00:00,0,-0.03,-0.02,-0.03,356.56,5.56,87.31,-0.68,-0.09,0.02,0.72
63.554,Pre-Flight,0.00,0.00,0.20,0.00,0.00,-0.00,0.03,-0.01,0.03,857.98,38.88,0.66,32.9395544000,-106.9114722000,1380.30,0.00,0.00,0.00,0.00,00:00:00,0,0.03,-0.01,0.03,356.56,5.56,87.31,-0.68,-0.09,0.02,0.72
63.654,Pre-Flight,0.00,0.00,-0.00,0.00,0.00,-0.32,-0.04,0.00,-0.04,858.02,38.88,-0.01,32.9395608000,-106.9114680000,1379.15,0.00,0.00,0.00,0.00,00:00:00,0,-0.04,0.00,-0.04,356.50,5.62,87.31,-0.68,-0.09,0.02,0.72
63.754,Pre-Flight,0.00,0.00,-0.07,0.00,0.00,-0.08,-0.15,0.01,-0.15,858.04,38.88,-0.22,32.9395630000,-106.9114647000,1379.32,0.00,0.00,0.00,0.00,00:00:00,0,-0.15,0.01,-0.15,356.50,5.62,87.31,-0.68,-0.09,0.02,0.72
63.854,Pre-Flight,0.00,0.00,-0.16,0.00,0.00,-0.11,-0.02,-0.03,-0.02,858.04,38.88,-0.52,32.9395634000,-106.9114613000,1379.47,0.00,0.00,0.00,0.00,00:00:00,0,-0.02,-0.03,-0.02,356.56,5.62,87.31,-0.68,-0.09,0.02,0.72
63.954,Pre-Flight,0.00,0.00,0.22,0.00,0.00,0.40,0.01,-0.01,0.01,858.04,38.88,0.73,32.9395613000,-106.9114636000,1379.66,0.00,0.00,0.00,0.00,00:00:00,0,0.01,-0.01,0.01,356.62,5.62,87.31,-0.68,-0.09,0.02,0.72
64.054,Pre-Flight,0.00,0.00,0.37,0.00,0.00,0.14,0.14,0.02,0.14,857.98,38.88,1.20,32.9395627000,-106.9114661000,1379.43,0.00,0.00,0.00,0.00,00:00:00,0,0.14,0.02,0.14,356.62,5.62,87.31,-0.68,-0.09,0.02,0.72
64.154,Pre-Flight,0.00,0.00,0.09,0.00,0.00,-1.80,0.10,-0.00,0.10,858.00,38.89,0.29,32.9395577000,-106.9114722000,1380.46,0.00,0.00,0.00,0.00,00:00:00,0,0.10,-0.00,0.10,356.56,5.62,87.31,-0.68,-0.09,0.02,0.72
64.254,Pre-Flight,0.00,0.00,-0.20,0.00,0.00,-1.13,-0.21,0.02,-0.21,858.04,38.89,-0.65,32.9395524000,-106.9114766000,1381.22,0.00,0.00,0.00,0.00,00:00:00,0,-0.21,0.02,-0.21,356.50,5.62,87.31,-0.68,-0.09,0.02,0.72
64.354,Pre-Flight,0.00,0.00,-0.20,0.00,0.00,-0.01,-0.13,0.01,-0.13,858.05,38.89,-0.66,32.9395634000,-106.9114648000,1379.98,0.00,0.00,0.00,0.00,00:00:00,0,-0.13,0.01,-0.13,356.44,5.62,87.31,-0.68,-0.09,0.02,0.72
64.454,Pre-Flight,0.00,0.00,-0.02,0.00,0.00,0.39,0.09,0.00,0.09,858.06,38.89,-0.08,32.9395502000,-106.9114785000,1382.65,0.00,0.00,0.00,0.00,00:00:00,0,0.09,0.00,0.09,356.50,5.62,87.31,-0.68,-0.09,0.02,0.72
64.554,Pre-Flight,0.00,0.00,0.16,0.00,0.00,0.33,-0.01,0.00,-0.01,858.00,38.89,0.52,32.9395482000,-106.9114791000,1383.73,0.00,0.00,0.00,0.00,00:00:00,0,-0.01,0.00,-0.01,356.50,5.62,87.31,-0.68,-0.09,0.02,0.72
64.654,Pre-Flight,0.00,0.00,0.11,0.00,0.00,-0.08,-0.06,0.02,-0.06,858.02,38.89,0.35,32.9395450000,-106.9114841000,1384.26,0.00,0.00,0.00,0.00,00:00:00,0,-0.06,0.02,-0.06,356.50,5.62,87.31,-0.68,-0.09,0.02,0.72
64.754,Pre-Flight,0.00,0.00,-0.06,0.00,0.00,-0.23,0.03,0.01,0.03,858.02,38.89,-0.21,32.9395424000,-106.9114875000,1384.35,0.00,0.00,0.00,0.00,00:00:00,0,0.03,0.01,0.03,356.50,5.62,87.31,-0.68,-0.09,0.02,0.72
64.854,Pre-Flight,0.00,0.00,-0.18,0.00,0.00,-0.14,-0.10,0.03,-0.10,858.03,38.89,-0.59,32.9395426000,-106.9114872000,1384.09,0.00,0.00,0.00,0.00,00:00:00,0,-0.10,0.03,-0.10,356.44,5.62,87.31,-0.68,-0.09,0.02,0.72
64.954,Pre-Flight,0.00,0.00,0.05,0.00,0.00,0.24,0.01,0.00,0.01,858.05,38.89,0.18,32.9395441000,-106.9114862000,1383.60,0.00,0.00,0.00,0.00,00:00:00,0,0.01,0.00,0.01,356.44,5.62,87.31,-0.68,-0.09,0.02,0.72
65.054,Pre-Flight,0.00,0.00,0.06,0.00,0.00,0.01,-0.06,-0.00,-0.06,857.99,38.89,0.21,32.9395335000,-106.9114974000,1384.90,0.00,0.00,0.00,0.00,00:00:00,0,-0.06,-0.00,-0.06,356.44,5.62,87.31,-0.68,-0.09,0.02,0.72
65.154,Pre-Flight,0.00,0.00,-0.10,0.00,0.00,-1.08,0.05,0.01,0.05,858.02,38.90,-0.34,32.9395394000,-106.9114930000,1383.52,0.00,0.00,0.00,0.00,00:00:00,0,0.05,0.01,0.05,356.44,5.62,87.31,-0.68,-0.09,0.02,0.72
65.254,Pre-Flight,0.00,0.00,-0.06,0.00,0.00,0.17,0.02,0.01,0.02,858.03,38.90,-0.20,32.9395403000,-106.9114914000,1384.05,0.00,0.00,0.00,0.00,00:00:00,0,0.02,0.01,0.02,356.44,5.62,87.31,-0.68,-0.09,0.02,0.72
65.354,Pre-Flight,0.00,0.00,-0.08,0.00,0.00,-0.05,0.09,0.01,0.09,858.03,38.90,-0.25,32.9395483000,-106.9114833000,1382.33,0.00,0.00,0.00,0.00,00:00:00,0,0.09,0.01,0.09,356.44,5.62,87.31,-0.68,-0.09,0.02,0.72
65.454,Pre-Flight,0.00,0.00,0.28,0.00,0.00,0.78,-0.21,-0.01,-0.21,858.02,38.90,0.90,32.9395517000,-106.9114799000,1381.27,0.00,0.00,0.00,0.00,00:00:00,0,-0.21,-0.01,-0.21,356.31,5.62,87.31,-0.68,-0.09,0.02,0.72
65.554,Pre-Flight,0.00,0.00,0.34,0.00,0.00,0.12,-0.04,-0.00,-0.04,857.97,38.90,1.13,32.9395473000,-106.9114847000,1381.54,0.00,0.00,0.00,0.00,00:00:00,0,-0.04,-0.00,-0.04,356.38,5.62,87.31,-0.68,-0.09,0.02,0.72
65.654,Pre-Flight,0.00,0.00,0.06,0.00,0.00,-0.44,0.07,-0.01,0.07,858.00,38.90,0.19,32.9395508000,-106.9114820000,1380.63,0.00,0.00,0.00,0.00,00:00:00,0,0.07,-0.01,0.07,356.44,5.62,87.31,-0.68,-0.09,0.02,0.72
65.754,Pre-Flight,0.00,0.00,-0.15,0.00,0.00,-0.28,-0.07,0.01,-0.07,858.03,38.90,-0.49,32.9395542000,-106.9114781000,1380.02,0.00,0.00,0.00,0.00,00:00:00,0,-0.07,0.01,-0.07,356.44,5.62,87.31,-0.68,-0.09,0.02,0.72
65.854,Pre-Flight,0.00,0.00,-0.20,0.00,0.00,-0.06,0.13,-0.00,0.13,858.05,38.90,-0.66,32.9395544000,-106.9114779000,1379.48,0.00,0.00,0.00,0.00,00:00:00,0,0.13,-0.00,0.13,356.50,5.62,87.31,-0.68,-0.09,0.02,0.72
65.954,Pre-Flight,0.00,0.00,0.05,0.00,0.00,0.26,-0.10,-0.03,-0.10,858.05,38.90,0.16,32.9395618000,-106.9114702000,1377.70,0.00,0.00,0.00,0.00,00:00:00,0,-0.10,-0.03,-0.10,356.38,5.62,87.31,-0.68,-0.09,0.02,0.72
66.054,Pre-Flight,0.00,0.00,0.34,0.00,0.00,0.28,-0.03,0.01,-0.03,857.97,38.90,1.11,32.9395662000,-106.9114661000,1376.47,0.00,0.00,0.00,0.00,00:00:00,0,-0.03,0.01,-0.03,356.38,5.62,87.38,-0.68,-0.09,0.02,0.72
66.154,Pre-Flight,0.00,0.00,0.16,0.00,0.00,-1.17,0.11,0.01,0.11,858.01,38.91,0.52,32.9395697000,-106.9114634000,1375.33,0.00,0.00,0.00,0.00,00:00:00,0,0.11,0.01,0.11,356.38,5.62,87.38,-0.69,-0.09,0.02,0.72
66.254,Pre-Flight,0.00,0.00,0.31,0.00,0.00,0.59,0.05,-0.01,0.05,857.99,38.91,1.01,32.9395648000,-106.9114681000,1376.39,0.00,0.00,0.00,0.00,00:00:00,0,0.05,-0.01,0.05,356.44,5.62,87.38,-0.68,-0.09,0.02,0.72
